timestamp,stateEstimate.vx,stateEstimate.vy,stateEstimate.vz,acc.x,acc.y,acc.z,gyro.x,gyro.y,gyro.z,range.zrange,mtf02.dpixelX,mtf02.dpixelY,mtf02.flowQual,locSrv.x,locSrv.y,locSrv.z,locSrv.qx,locSrv.qy,locSrv.qz,locSrv.qw
128605.405,0.0044472711160779,-0.004929120186716318,-0.016374586150050163,0.06424546986818314,-0.0365121103823185,0.9966011047363281,-0.08721669018268585,-0.12165670841932297,0.05557835474610329,20,0.0,0.0,156,0.07242513447999954,0.14003348350524902,0.14772042632102966,0.016255388036370277,0.01896573230624199,0.04680025950074196,-0.9985920190811157
128607.703,0.004929235205054283,-0.005368055775761604,-0.016411740332841873,0.06428463011980057,-0.03637386113405228,0.9969083070755005,-0.06175091117620468,-0.04693096503615379,-0.05543670430779457,20,0.0,0.0,156,0.07241746783256531,0.1400371789932251,0.14770007133483887,0.01631387695670128,0.018852336332201958,0.04687933623790741,-0.9985893964767456
128609.368,0.004347776062786579,-0.0049881222657859325,-0.0036346716806292534,0.06423109769821167,-0.036159057170152664,0.9973031878471375,0.021546578034758568,0.0638599544763565,-0.16738268733024597,20,0.0,0.0,156,0.07241746783256531,0.1400371789932251,0.14770007133483887,0.01631387695670128,0.018852336332201958,0.04687933623790741,-0.9985893964767456
128611.344,0.004347776062786579,-0.0049881222657859325,-0.0036346716806292534,0.06402750313282013,-0.03578188642859459,0.9975818991661072,0.28073304891586304,0.02463960461318493,-0.15082375705242157,20,0.0,0.0,156,0.07241746783256531,0.1400371789932251,0.14770007133483887,0.01631387695670128,0.018852336332201958,0.04687933623790741,-0.9985893964767456
128613.328,0.004347776062786579,-0.0049881222657859325,-0.0036346716806292534,0.06373929232358932,-0.03505652770400047,0.9977698922157288,0.4209998548030853,-0.008325290866196156,0.023412050679326057,20,0.0,0.0,156,0.07244352251291275,0.14005911350250244,0.14770634472370148,0.016356904059648514,0.018865279853343964,0.046802621334791183,-0.9985920786857605
128615.311,0.0037912956904619932,-0.004625100176781416,0.008745293132960796,0.06341620534658432,-0.0344226248562336,0.9979268312454224,0.18814392387866974,0.0021733504254370928,0.18306389451026917,20,0.0,0.0,156,0.07244352251291275,0.14005911350250244,0.14770634472370148,0.016356904059648514,0.018865279853343964,0.046802621334791183,-0.9985920786857605
128617.376,0.004300018772482872,-0.004973439034074545,0.00874314084649086,0.06291043758392334,-0.03428694233298302,0.9979168772697449,-0.12972553074359894,-0.07668567448854446,0.17543284595012665,20,0.0,0.0,156,0.0724424496293068,0.14002232253551483,0.14777255058288574,0.01637660153210163,0.019239041954278946,0.04632701724767685,-0.99860680103302
128619.278,0.0036819635424762964,-0.004574569407850504,0.022511236369609833,0.06256784498691559,-0.0346231609582901,0.9975953698158264,-0.29907098412513733,-0.1444234400987625,0.07400019466876984,20,0.0,0.0,156,0.0724424496293068,0.14002232253551483,0.14777255058288574,0.01637660153210163,0.019239041954278946,0.04632701724767685,-0.99860680103302
128621.262,0.0036819635424762964,-0.004574569407850504,0.022511236369609833,0.06287747621536255,-0.03526192158460617,0.997073233127594,-0.32502657175064087,-0.07435864210128784,-0.0549420602619648,20,0.0,0.0,157,0.0724424496293068,0.14002232253551483,0.14777255058288574,0.01637660153210163,0.019239041954278946,0.04632701724767685,-0.99860680103302
128623.233,0.004899368155747652,-0.005197205580770969,-0.02221645414829254,0.06339956074953079,-0.03589406982064247,0.9966511726379395,-0.4191725552082062,-0.017305932939052582,-0.1536744385957718,20,0.0,0.0,157,0.07242058217525482,0.14003856480121613,0.14768315851688385,0.016414158046245575,0.018960749730467796,0.04681727662682533,-0.9985886216163635
128625.214,0.0044005028903484344,-0.004872918128967285,-0.011222939938306808,0.06373932212591171,-0.03641878813505173,0.9961389899253845,-0.30847665667533875,-0.07536282390356064,-0.14612430334091187,20,0.0,0.0,157,0.07242058217525482,0.14003856480121613,0.14768315851688385,0.016414158046245575,0.018960749730467796,0.04681727662682533,-0.9985886216163635
128627.513,0.004809355828911066,-0.005124347750097513,-0.011228793300688267,0.06402776390314102,-0.036695994436740875,0.9956484436988831,-0.001836338429711759,-0.1373213827610016,-0.16683429479599,20,0.0,0.0,157,0.07242058217525482,0.14003856480121613,0.14768315851688385,0.016414158046245575,0.018960749730467796,0.04681727662682533,-0.9985886216163635
128629.185,0.004809355828911066,-0.005124347750097513,-0.011228793300688267,0.06424221396446228,-0.03662211820483208,0.9955241680145264,0.004551529884338379,-0.12228498607873917,-0.1392335742712021,20,0.0,0.0,157,0.07245554774999619,0.14003129303455353,0.14765197038650513,0.01643393374979496,0.01884765364229679,0.04695400223135948,-0.9985840916633606
128631.158,0.004250554367899895,-0.004760408308357,0.0011444801930338144,0.06458267569541931,-0.03614254295825958,0.995372474193573,-0.07256627827882767,-0.2124178558588028,-0.004085196647793055,20,0.0,0.0,157,0.07245554774999619,0.14003129303455353,0.14765197038650513,0.01643393374979496,0.01884765364229679,0.04695400223135948,-0.9985840916633606
128633.145,0.004250554367899895,-0.004760408308357,0.0011444801930338144,0.06462661921977997,-0.03576435148715973,0.9951747059822083,-0.06229251250624657,-0.351616233587265,0.002145767444744706,20,0.0,0.0,157,0.07245554774999619,0.14003129303455353,0.14765197038650513,0.01643393374979496,0.01884765364229679,0.04695400223135948,-0.9985840916633606
128635.119,0.004250554367899895,-0.004760408308357,0.0011444801930338144,0.06443183869123459,-0.03575121611356735,0.9952880144119263,-0.06360406428575516,-0.35567590594291687,-0.15491531789302826,20,0.0,0.0,157,0.07243377715349197,0.14004509150981903,0.1476670652627945,0.016397805884480476,0.018774615600705147,0.04685383290052414,-0.9985907077789307
128637.181,0.004253136459738016,-0.004804341588169336,0.012962146662175655,0.06460728496313095,-0.03589046373963356,0.9954711198806763,-0.1473766416311264,-0.2024979591369629,-0.08338119834661484,20,0.0,0.0,157,0.07243377715349197,0.14004509150981903,0.1476670652627945,0.016397805884480476,0.018774615600705147,0.04685383290052414,-0.9985907077789307
128639.093,0.004253136459738016,-0.004804341588169336,0.012962146662175655,0.06498503684997559,-0.03625035285949707,0.9955894947052002,-0.22452230751514435,-0.09318538010120392,0.017759626731276512,20,0.0,0.0,157,0.07243377715349197,0.14004509150981903,0.1476670652627945,0.016397805884480476,0.018774615600705147,0.04685383290052414,-0.9985907077789307
128641.069,0.004253136459738016,-0.004804341588169336,0.012962146662175655,0.06511533260345459,-0.03683652728796005,0.995514452457428,-0.1818789541721344,0.0024592597037553787,-0.04136248677968979,20,0.0,0.0,157,0.0724417045712471,0.140049546957016,0.14765672385692596,0.01627824641764164,0.01886620931327343,0.046902310103178024,-0.9985886812210083
128643.055,0.004854141268879175,-0.00503963278606534,-0.018295953050255775,0.06495203077793121,-0.03733634203672409,0.9955353736877441,-0.05065804347395897,0.028837701305747032,-0.0805446207523346,20,0.0,0.0,156,0.0724417045712471,0.140049546957016,0.14765672385692596,0.01627824641764164,0.01886620931327343,0.046902310103178024,-0.9985886812210083
128645.036,0.004854141268879175,-0.00503963278606534,-0.018295953050255775,0.06478418409824371,-0.03746466711163521,0.995841383934021,0.06394711136817932,0.047247566282749176,-0.08723500370979309,20,0.0,0.0,156,0.0722651332616806,0.1399242877960205,0.14771032333374023,0.015050014480948448,0.020160019397735596,0.04714955389499664,-0.9985710382461548
128647.316,0.00486255856230855,-0.005114056635648012,-0.0061285896226763725,0.06463372707366943,-0.037358906120061874,0.996337890625,0.03920282423496246,0.2233278602361679,-0.08956794440746307,20,0.0,0.0,156,0.0722651332616806,0.1399242877960205,0.14771032333374023,0.015050014480948448,0.020160019397735596,0.04714955389499664,-0.9985710382461548
128648.991,0.00486255856230855,-0.005114056635648012,-0.0061285896226763725,0.06432803720235825,-0.03720647096633911,0.9965099096298218,-0.12139709293842316,0.3783997893333435,-0.029627127572894096,20,0.0,0.0,156,0.0722651332616806,0.1399242877960205,0.14771032333374023,0.015050014480948448,0.020160019397735596,0.04714955389499664,-0.9985710382461548
128650.97,0.00486255856230855,-0.005114056635648012,-0.0061285896226763725,0.06378036737442017,-0.036775704473257065,0.996232271194458,-0.15036940574645996,0.19501923024654388,0.006442910060286522,20,0.0,0.0,156,0.0724274069070816,0.1400366574525833,0.1477023959159851,0.0162454042583704,0.018855389207601547,0.04681608825922012,-0.9985934495925903
128652.951,0.004324515350162983,-0.004767062608152628,0.005824787076562643,0.06322091072797775,-0.036158252507448196,0.9960172772407532,-0.009105414152145386,-0.22447732090950012,-0.11165037751197815,20,0.0,0.0,156,0.0724274069070816,0.1400366574525833,0.1477023959159851,0.0162454042583704,0.018855389207601547,0.04681608825922012,-0.9985934495925903
128654.941,0.004324515350162983,-0.004767062608152628,0.005824787076562643,0.06284318119287491,-0.03580385819077492,0.9961320161819458,-0.022197943180799484,-0.30542659759521484,-0.2519034445285797,20,0.0,0.0,156,0.0724274069070816,0.1400366574525833,0.1477023959159851,0.0162454042583704,0.018855389207601547,0.04681608825922012,-0.9985934495925903
128656.994,0.004235005471855402,-0.004828501492738724,0.018955351784825325,0.06274497509002686,-0.03567635640501976,0.9965113401412964,-0.10979311913251877,-0.0452793650329113,-0.13924768567085266,20,0.0,0.0,156,0.07243965566158295,0.14005284011363983,0.14765042066574097,0.016341179609298706,0.018895994871854782,0.04692648723721504,-0.9985858798027039
128658.895,0.004235005471855402,-0.004828501492738724,0.018955351784825325,0.06290248781442642,-0.03547685593366623,0.9969961643218994,-0.04123803973197937,0.09187675267457962,-0.004324374254792929,20,0.0,0.0,156,0.07243965566158295,0.14005284011363983,0.14765042066574097,0.016341179609298706,0.018895994871854782,0.04692648723721504,-0.9985858798027039
128660.895,0.004235005471855402,-0.004828501492738724,0.018955351784825325,0.06294461339712143,-0.03514619171619415,0.9970763325691223,-0.005390929989516735,0.04581962153315544,0.009708482772111893,20,0.0,0.0,156,0.07243965566158295,0.14005284011363983,0.14765042066574097,0.016341179609298706,0.018895994871854782,0.04692648723721504,-0.9985858798027039
128662.858,0.004235005471855402,-0.004828501492738724,0.018955351784825325,0.0627213791012764,-0.03493955731391907,0.9969733953475952,-0.0823400616645813,-0.10385712236166,0.03670850768685341,20,0.0,0.0,157,0.0724281296133995,0.1400183141231537,0.14768916368484497,0.016197260469198227,0.018961496651172638,0.04703846201300621,-0.9985818266868591
128664.838,0.004767630249261856,-0.0050984774716198444,-0.01270754262804985,0.06265435367822647,-0.03487301245331764,0.9970434308052063,0.050792206078767776,-0.21072787046432495,0.03331742435693741,20,0.0,0.0,157,0.0724281296133995,0.1400183141231537,0.14768916368484497,0.016197260469198227,0.018961496651172638,0.04703846201300621,-0.9985818266868591
128667.144,0.005155417136847973,-0.005378234665840864,-0.012769023887813091,0.06288384646177292,-0.03491257503628731,0.9970471858978271,0.1143016517162323,-0.22271089255809784,-0.012264012359082699,20,0.0,0.0,157,0.07241043448448181,0.14004449546337128,0.14770089089870453,0.0164245143532753,0.01905541494488716,0.04689047485589981,-0.9985832571983337
128668.8,0.004616076592355967,-0.005026526749134064,-0.0008470792090520263,0.0633484423160553,-0.03515990450978279,0.9967454671859741,-0.02402198128402233,-0.04965956136584282,-0.06758544594049454,20,0.0,0.0,157,0.07241043448448181,0.14004449546337128,0.14770089089870453,0.0164245143532753,0.01905541494488716,0.04689047485589981,-0.9985832571983337
128670.784,0.004616076592355967,-0.005026526749134064,-0.0008470792090520263,0.06393294781446457,-0.03557300567626953,0.9965196251869202,-0.04195910692214966,0.08710934966802597,-0.04869686812162399,20,0.0,0.0,157,0.07241043448448181,0.14004449546337128,0.14770089089870453,0.0164245143532753,0.01905541494488716,0.04689047485589981,-0.9985832571983337
128672.766,0.004616076592355967,-0.005026526749134064,-0.0008470792090520263,0.06433054059743881,-0.035704076290130615,0.9965688586235046,0.1455053985118866,0.20833995938301086,0.06117895618081093,20,0.0,0.0,157,0.07244054973125458,0.140047088265419,0.14767155051231384,0.016382141038775444,0.019050853326916695,0.04692871496081352,-0.9985821843147278
128674.744,0.004100040066987276,-0.004692663438618183,0.01070863101631403,0.06455420702695847,-0.03536870330572128,0.9967546463012695,0.20870868861675262,0.16677382588386536,0.10398935526609421,20,0.0,0.0,157,0.07244054973125458,0.140047088265419,0.14767155051231384,0.016382141038775444,0.019050853326916695,0.04692871496081352,-0.9985821843147278
128676.805,0.004563574679195881,-0.004972365219146013,0.010649382136762142,0.06467866152524948,-0.03484375402331352,0.9969267845153809,0.08576413244009018,0.019671181216835976,0.004232469946146011,20,0.0,0.0,157,0.07244054973125458,0.140047088265419,0.14767155051231384,0.016382141038775444,0.019050853326916695,0.04692871496081352,-0.9985821843147278
128678.709,0.004563574679195881,-0.004972365219146013,0.010649382136762142,0.06458276510238647,-0.034620970487594604,0.9968063831329346,-0.04870586469769478,-0.10313871502876282,-0.09488040953874588,20,0.0,0.0,157,0.07243481278419495,0.14004500210285187,0.14764723181724548,0.01632808893918991,0.018909737467765808,0.04694274812936783,-0.9985851049423218
128680.692,0.00399423623457551,-0.004603749141097069,0.023455793038010597,0.0643620491027832,-0.034805748611688614,0.996423602104187,-0.13738298416137695,-0.22285202145576477,-0.14014136791229248,20,0.0,0.0,157,0.07243481278419495,0.14004500210285187,0.14764723181724548,0.01632808893918991,0.018909737467765808,0.04694274812936783,-0.9985851049423218
128682.681,0.00399423623457551,-0.004603749141097069,0.023455793038010597,0.06394712626934052,-0.03501104563474655,0.9958651661872864,-0.0587734580039978,-0.3119819462299347,-0.1340426802635193,20,0.0,0.0,157,0.07243481278419495,0.14004500210285187,0.14764723181724548,0.01632808893918991,0.018909737467765808,0.04694274812936783,-0.9985851049423218
128684.655,0.00399423623457551,-0.004603749141097069,0.023455793038010597,0.06351654976606369,-0.035173673182725906,0.9949671030044556,0.07119514793157578,-0.3623092472553253,0.009331928566098213,20,0.0,0.0,155,0.07241649925708771,0.14004459977149963,0.14773209393024445,0.01630234718322754,0.018982281908392906,0.04682106152176857,-0.9985898733139038
128686.939,0.004882059991359711,-0.005118885077536106,-0.008633321151137352,0.06323734670877457,-0.035458967089653015,0.9938822388648987,-0.019061630591750145,-0.34677037596702576,0.008026943542063236,20,0.0,0.0,155,0.07241649925708771,0.14004459977149963,0.14773209393024445,0.01630234718322754,0.018982281908392906,0.04682106152176857,-0.9985898733139038
128688.622,0.004882059991359711,-0.005118885077536106,-0.008633321151137352,0.06323720514774323,-0.035582270473241806,0.9932733774185181,-0.14772334694862366,-0.32596755027770996,-0.16598907113075256,20,0.0,0.0,155,0.07241649925708771,0.14004459977149963,0.14773209393024445,0.01630234718322754,0.018982281908392906,0.04682106152176857,-0.9985898733139038
128690.597,0.004882059991359711,-0.005118885077536106,-0.008633321151137352,0.06345778703689575,-0.0354987271130085,0.9932440519332886,-0.11268973350524902,-0.17976559698581696,-0.28065961599349976,20,0.0,0.0,155,0.07241684198379517,0.14002124965190887,0.14772696793079376,0.016234202310442924,0.018935201689600945,0.046812936663627625,-0.9985922574996948
128692.575,0.0043644290417432785,-0.00478375842794776,0.002938255202025175,0.06341288238763809,-0.03564004227519035,0.9934863448143005,0.07761818170547485,0.044953107833862305,-0.1907084584236145,20,0.0,0.0,155,0.07241684198379517,0.14002124965190887,0.14772696793079376,0.016234202310442924,0.018935201689600945,0.046812936663627625,-0.9985922574996948
128694.566,0.0043644290417432785,-0.00478375842794776,0.002938255202025175,0.06291332840919495,-0.03585982695221901,0.9937750697135925,0.26297903060913086,0.1814683973789215,-0.03372681885957718,20,0.0,0.0,155,0.07241684198379517,0.14002124965190887,0.14772696793079376,0.016234202310442924,0.018935201689600945,0.046812936663627625,-0.9985922574996948
128696.618,0.0048202951438724995,-0.00510010588914156,0.002563877496868372,0.06265147030353546,-0.035858143121004105,0.9942170977592468,0.2532738447189331,0.23063763976097107,0.13984046876430511,20,0.0,0.0,155,0.07244367152452469,0.1400517225265503,0.14769111573696136,0.016293486580252647,0.01893712766468525,0.0468297004699707,-0.9985904693603516
128698.518,0.004249678459018469,-0.004725863691419363,0.01539658848196268,0.06281773746013641,-0.036026448011398315,0.9947227239608765,0.15506862103939056,0.17464055120944977,0.20723110437393188,20,0.0,0.0,155,0.07244367152452469,0.1400517225265503,0.14769111573696136,0.016293486580252647,0.01893712766468525,0.0468297004699707,-0.9985904693603516
128700.507,0.004249678459018469,-0.004725863691419363,0.01539658848196268,0.0633077546954155,-0.03622408211231232,0.9949123859405518,0.06366841495037079,0.021276701241731644,0.24675291776657104,20,0.0,0.0,155,0.07243063300848007,0.14004084467887878,0.14781147241592407,0.016423502936959267,0.019321342930197716,0.046449027955532074,-0.9985987544059753
128702.484,0.003702425165101886,-0.0043721068650484085,0.027807632461190224,0.06406977027654648,-0.03640788048505783,0.9950498342514038,0.07816118746995926,-0.021751444786787033,0.15173572301864624,20,0.0,0.0,155,0.07243063300848007,0.14004084467887878,0.14781147241592407,0.016423502936959267,0.019321342930197716,0.046449027955532074,-0.9985987544059753
128704.464,0.0028273980133235455,-0.00393780879676342,0.02778507210314274,0.06478846073150635,-0.036740273237228394,0.9952316284179688,0.05927010253071785,0.08402759581804276,-0.02167796902358532,20,0.0,0.0,157,0.07243063300848007,0.14004084467887878,0.14781147241592407,0.016423502936959267,0.019321342930197716,0.046449027955532074,-0.9985987544059753
128706.768,0.004980776458978653,-0.005231295712292194,-0.008507263846695423,0.06507372856140137,-0.036989808082580566,0.9954277276992798,-0.07112586498260498,0.17747624218463898,0.0030914575327187777,20,0.0,0.0,157,0.07243672013282776,0.1400393545627594,0.14767073094844818,0.016370899975299835,0.019010378047823906,0.04690834507346153,-0.9985841512680054
128708.425,0.004980776458978653,-0.005231295712292194,-0.008507263846695423,0.06497061997652054,-0.03691449761390686,0.9956871867179871,-0.029201824218034744,0.18022264540195465,0.017517372965812683,20,0.0,0.0,157,0.07243672013282776,0.1400393545627594,0.14767073094844818,0.016370899975299835,0.019010378047823906,0.04690834507346153,-0.9985841512680054
128710.409,0.004980776458978653,-0.005231295712292194,-0.008507263846695423,0.0649557039141655,-0.036622144281864166,0.9957058429718018,0.17081379890441895,0.1636507511138916,0.0769626572728157,20,0.0,0.0,157,0.0724325105547905,0.1400570422410965,0.14768075942993164,0.01632654294371605,0.019026800990104675,0.046942733228206635,-0.9985829591751099
128712.387,0.004504096694290638,-0.004916837904602289,0.002244835253804922,0.06520985066890717,-0.036199331283569336,0.9954530596733093,0.08188674598932266,0.1881556361913681,0.11943169683218002,20,0.0,0.0,157,0.0724325105547905,0.1400570422410965,0.14768075942993164,0.01632654294371605,0.019026800990104675,0.046942733228206635,-0.9985829591751099
128714.377,0.004504096694290638,-0.004916837904602289,0.002244835253804922,0.06539267301559448,-0.035803843289613724,0.9950757026672363,-0.11327150464057922,0.15628254413604736,0.07194316387176514,20,0.0,0.0,157,0.0724325105547905,0.1400570422410965,0.14768075942993164,0.01632654294371605,0.019026800990104675,0.046942733228206635,-0.9985829591751099
128716.429,0.005104951560497284,-0.005349070765078068,0.002074590651318431,0.06498800963163376,-0.035613372921943665,0.9945987462997437,-0.024326547980308533,0.14543262124061584,-0.03076081909239292,20,0.0,0.0,157,0.07247737050056458,0.1400093138217926,0.14753006398677826,0.016266006976366043,0.018441887572407722,0.046988438814878464,-0.9985927939414978
128718.33,0.004580364562571049,-0.005005450453609228,0.014026505872607231,0.06420604884624481,-0.03585657849907875,0.9941267371177673,0.07444887608289719,0.18944452702999115,-0.0747438371181488,20,0.0,0.0,157,0.07247737050056458,0.1400093138217926,0.14753006398677826,0.016266006976366043,0.018441887572407722,0.046988438814878464,-0.9985927939414978
128720.32,0.004580364562571049,-0.005005450453609228,0.014026505872607231,0.06383637338876724,-0.0362173467874527,0.9939223527908325,0.007461911533027887,0.2755616307258606,-0.008024950511753559,20,0.0,0.0,157,0.07247737050056458,0.1400093138217926,0.14753006398677826,0.016266006976366043,0.018441887572407722,0.046988438814878464,-0.9985927939414978
128722.307,0.004580364562571049,-0.005005450453609228,0.014026505872607231,0.06402041763067245,-0.036644622683525085,0.9946008920669556,-0.05099013075232506,0.13486236333847046,0.02606249786913395,20,0.0,0.0,157,0.07246308028697968,0.14006829261779785,0.14766182005405426,0.016404224559664726,0.018828338012099266,0.0469360314309597,-0.9985857009887695
128724.28,0.0031043344642966986,-0.0041187419556081295,0.02558290958404541,0.06441102176904678,-0.0371847003698349,0.9959546327590942,-0.16977642476558685,-0.059603262692689896,0.04855498671531677,20,0.0,0.0,156,0.07246308028697968,0.14006829261779785,0.14766182005405426,0.016404224559664726,0.018828338012099266,0.0469360314309597,-0.9985857009887695
128726.562,0.005760143510997295,-0.005678441841155291,-0.019450100138783455,0.06481876224279404,-0.037767305970191956,0.9970495700836182,-0.1512652337551117,-0.03780827298760414,0.031458258628845215,20,0.0,0.0,156,0.07246308028697968,0.14006829261779785,0.14766182005405426,0.016404224559664726,0.018828338012099266,0.0469360314309597,-0.9985857009887695
128728.236,0.005760143510997295,-0.005678441841155291,-0.019450100138783455,0.06487314403057098,-0.03807554021477699,0.9977071285247803,0.09022308886051178,-0.07592933624982834,-0.01223147101700306,20,0.0,0.0,156,0.07242430746555328,0.14003969728946686,0.1477435827255249,0.016277024522423744,0.018949121236801147,0.04675840586423874,-0.9985938668251038
128730.227,0.005292256362736225,-0.005368612706661224,-0.00895761325955391,0.06469013541936874,-0.037704214453697205,0.9982842206954956,0.330171674489975,-0.15308192372322083,-0.04398777708411217,20,0.0,0.0,156,0.07242430746555328,0.14003969728946686,0.1477435827255249,0.016277024522423744,0.018949121236801147,0.04675840586423874,-0.9985938668251038
128732.199,0.005292256362736225,-0.005368612706661224,-0.00895761325955391,0.06465792655944824,-0.03691506385803223,0.9987125992774963,0.26555776596069336,-0.12478756159543991,-0.08014524728059769,20,0.0,0.0,156,0.07244998216629028,0.14003270864486694,0.14780621230602264,0.01639002189040184,0.01922590099275112,0.046428222209215164,-0.9986020922660828
128734.18,0.004842123948037624,-0.00507354224100709,0.0012477774871513247,0.06491321325302124,-0.03622587397694588,0.9986677169799805,-0.006137186661362648,-0.23134149610996246,-0.11245761811733246,20,0.0,0.0,156,0.07244998216629028,0.14003270864486694,0.14780621230602264,0.01639002189040184,0.01922590099275112,0.046428222209215164,-0.9986020922660828
128736.248,0.005397973116487265,-0.0055773016065359116,0.0012935056583955884,0.06546226143836975,-0.03598067909479141,0.997970700263977,-0.07561082392930984,-0.2535441219806671,-0.0924176499247551,20,0.0,0.0,156,0.07244998216629028,0.14003270864486694,0.14780621230602264,0.01639002189040184,0.01922590099275112,0.046428222209215164,-0.9986020922660828
128738.153,0.005397973116487265,-0.0055773016065359116,0.0012935056583955884,0.0659404769539833,-0.035913728177547455,0.9970971941947937,0.08965201675891876,0.06072336807847023,-0.09982483834028244,20,0.0,0.0,156,0.07243551313877106,0.1400459259748459,0.14764636754989624,0.016315573826432228,0.01893763802945614,0.04684747755527496,-0.9985893368721008
128740.134,0.00489741051569581,-0.0052472129464149475,0.01267316285520792,0.06618553400039673,-0.03563769906759262,0.9965317249298096,0.09747475385665894,0.1977241486310959,-0.03909000754356384,20,0.0,0.0,156,0.07243551313877106,0.1400459259748459,0.14764636754989624,0.016315573826432228,0.01893763802945614,0.04684747755527496,-0.9985893368721008
128742.105,0.00489741051569581,-0.0052472129464149475,0.01267316285520792,0.0657505914568901,-0.035294920206069946,0.9964268803596497,-0.06052450090646744,-0.006581863388419151,0.0798337534070015,20,0.0,0.0,156,0.07243551313877106,0.1400459259748459,0.14764636754989624,0.016315573826432228,0.01893763802945614,0.04684747755527496,-0.9985893368721008
128744.093,0.00489741051569581,-0.0052472129464149475,0.01267316285520792,0.06470789015293121,-0.03537004441022873,0.996655285358429,-0.0563933402299881,-0.1218096911907196,0.015371453016996384,20,0.0,0.0,156,0.07244285196065903,0.1400667130947113,0.14770328998565674,0.01631854847073555,0.018886791542172432,0.046823665499687195,-0.9985913038253784
128746.384,0.00489741051569581,-0.0052472129464149475,0.01267316285520792,0.06380797177553177,-0.035529978573322296,0.9968058466911316,0.11813173443078995,-0.15145225822925568,-0.19910849630832672,20,0.0,0.0,156,0.07244285196065903,0.1400667130947113,0.14770328998565674,0.01631854847073555,0.018886791542172432,0.046823665499687195,-0.9985913038253784
128748.048,0.005780305713415146,-0.005755166988819838,-0.018008045852184296,0.0633118748664856,-0.03517206013202667,0.996859610080719,0.18343625962734222,-0.2882956862449646,-0.3760991394519806,20,0.0,0.0,156,0.07244285196065903,0.1400667130947113,0.14770328998565674,0.01631854847073555,0.018886791542172432,0.046823665499687195,-0.9985913038253784
128750.042,0.005780305713415146,-0.005755166988819838,-0.018008045852184296,0.06324857473373413,-0.03443198278546333,0.9970776438713074,0.10985856503248215,-0.3526814579963684,-0.25091028213500977,20,0.0,0.0,156,0.07243318855762482,0.1400381475687027,0.14770039916038513,0.016291102394461632,0.01890283077955246,0.04678673669695854,-0.9985932111740112
128752.021,0.005338768940418959,-0.005461512133479118,-0.00795680470764637,0.06339310109615326,-0.0338083915412426,0.9973918795585632,-0.15413498878479004,-0.081324003636837,0.0655117779970169,20,0.0,0.0,156,0.07243318855762482,0.1400381475687027,0.14770039916038513,0.016291102394461632,0.01890283077955246,0.04678673669695854,-0.9985932111740112
128753.993,0.005338768940418959,-0.005461512133479118,-0.00795680470764637,0.06366147100925446,-0.03370073065161705,0.9977136254310608,-0.22095535695552826,0.2982400357723236,0.1231563463807106,20,0.0,0.0,156,0.07243318855762482,0.1400381475687027,0.14770039916038513,0.016291102394461632,0.01890283077955246,0.04678673669695854,-0.9985932111740112
128756.088,0.005803845822811127,-0.005693643353879452,-0.007993548177182674,0.06410053372383118,-0.033864907920360565,0.9980682730674744,-0.09634038060903549,0.26963284611701965,-0.06652503460645676,20,0.0,0.0,156,0.0724356472492218,0.14004552364349365,0.14773988723754883,0.01629526913166046,0.018834415823221207,0.04681088402867317,-0.9985933303833008
128757.953,0.005307492800056934,-0.005362010560929775,0.003322639036923647,0.06419702619314194,-0.0338427908718586,0.9982949495315552,-0.02738039754331112,0.0043747927993535995,-0.12333261221647263,20,0.0,0.0,156,0.0724356472492218,0.14004552364349365,0.14773988723754883,0.01629526913166046,0.018834415823221207,0.04681088402867317,-0.9985933303833008
128759.943,0.005307492800056934,-0.005362010560929775,0.003322639036923647,0.06390083581209183,-0.03385651856660843,0.998313844203949,-0.06778162717819214,-0.12710095942020416,-0.11080102622509003,20,0.0,0.0,156,0.0724356472492218,0.14004552364349365,0.14773988723754883,0.01629526913166046,0.018834415823221207,0.04681088402867317,-0.9985933303833008
128761.919,0.0048340726643800735,-0.005046244245022535,0.01428772509098053,0.06373410671949387,-0.03425341472029686,0.9983257055282593,-0.054674144834280014,-0.1345500349998474,-0.10562468320131302,20,0.0,0.0,156,0.07247112691402435,0.14005574584007263,0.1476929783821106,0.01636980101466179,0.01877790503203869,0.04694468900561333,-0.998586893081665
128763.9,0.0048340726643800735,-0.005046244245022535,0.01428772509098053,0.06409882754087448,-0.03491148725152016,0.9982437491416931,0.07639579474925995,-0.0892154797911644,-0.13536648452281952,20,0.0,0.0,155,0.07247112691402435,0.14005574584007263,0.1476929783821106,0.01636980101466179,0.01877790503203869,0.04694468900561333,-0.998586893081665
128766.231,0.006134227849543095,-0.005783630535006523,-0.026230808347463608,0.06471126526594162,-0.034728772938251495,0.9981784224510193,-0.018103428184986115,0.04268810898065567,-0.21566562354564667,20,0.0,0.0,155,0.07244014739990234,0.14005312323570251,0.14767831563949585,0.016358552500605583,0.018857400864362717,0.04684564098715782,-0.9985901713371277
128767.861,0.005690563470125198,-0.005481733940541744,-0.016144219785928726,0.06455516070127487,-0.034285180270671844,0.9984170794487,-0.14569059014320374,0.20643466711044312,-0.034058548510074615,20,0.0,0.0,155,0.07244014739990234,0.14005312323570251,0.14767831563949585,0.016358552500605583,0.018857400864362717,0.04684564098715782,-0.9985901713371277
128769.852,0.005690563470125198,-0.005481733940541744,-0.016144219785928726,0.06438085436820984,-0.036384064704179764,0.9991451501846313,-0.17493543028831482,0.5013130903244019,-1.0704110860824585,20,0.0,0.0,155,0.07244014739990234,0.14005312323570251,0.14767831563949585,0.016358552500605583,0.018857400864362717,0.04684564098715782,-0.9985901713371277
128771.82,0.005690563470125198,-0.005481733940541744,-0.016144219785928726,0.06730086356401443,-0.04091322794556618,0.9998201131820679,-0.04537364840507507,0.8936701416969299,-4.460202217102051,20,0.0,0.0,155,0.07245500385761261,0.1400298774242401,0.147685706615448,0.01630786992609501,0.018799791112542152,0.046880438923835754,-0.9985904693603516
128773.802,0.005264154635369778,-0.005196684505790472,-0.006326799280941486,0.07576845586299896,-0.043508537113666534,0.9991560578346252,-0.1145121306180954,1.310444951057434,-9.134974479675293,20,0.0,0.0,155,0.07245500385761261,0.1400298774242401,0.147685706615448,0.01630786992609501,0.018799791112542152,0.046880438923835754,-0.9985904693603516
128775.919,0.0058765411376953125,-0.005618468392640352,-0.00616946117952466,0.0886925607919693,-0.04441443458199501,0.9973829984664917,-0.4224119186401367,1.83843994140625,-12.492169380187988,20,0.0,0.0,155,0.07245500385761261,0.1400298774242401,0.147685706615448,0.01630786992609501,0.018799791112542152,0.046880438923835754,-0.9985904693603516
128777.764,0.0058765411376953125,-0.005618468392640352,-0.00616946117952466,0.10287416726350784,-0.04535803571343422,0.995252251625061,-0.6828499436378479,2.2439663410186768,-12.70770263671875,20,0.0,0.0,155,0.07245239615440369,0.140036478638649,0.14781023561954498,0.016410091891884804,0.019330861046910286,0.0463915579020977,-0.9986014366149902
128779.756,0.0053923288360238075,-0.0052946340292692184,0.0049204155802726746,0.1137487068772316,-0.04126953333616257,0.9932360053062439,-0.8344792127609253,2.5666303634643555,-10.597393989562988,20,0.0,0.0,155,0.07245239615440369,0.140036478638649,0.14781023561954498,0.016410091891884804,0.019330861046910286,0.0463915579020977,-0.9986014366149902
128781.733,0.0053923288360238075,-0.0052946340292692184,0.0049204155802726746,0.11776289343833923,-0.03349761292338371,0.9918817281723022,-0.583527684211731,2.942413568496704,-7.578896522521973,20,0.0,0.0,155,0.07248476147651672,0.14004042744636536,0.14768429100513458,0.01631353236734867,0.018741441890597343,0.04679017886519432,-0.998595654964447
128783.718,0.004932379815727472,-0.004987920634448528,0.015665899962186813,0.11664187163114548,-0.031513530761003494,0.9908603429794312,0.027524245902895927,3.429295301437378,-4.574154376983643,20,0.0,0.0,155,0.07248476147651672,0.14004042744636536,0.14768429100513458,0.01631353236734867,0.018741441890597343,0.04679017886519432,-0.998595654964447
128786.044,0.009639370255172253,-0.005636929534375668,0.01567682810127735,0.1075834408402443,-0.03332730010151863,0.9891850352287292,0.15630383789539337,3.6652259826660156,-1.6733030080795288,20,0.0,0.0,156,0.07248476147651672,0.14004042744636536,0.14768429100513458,0.01631353236734867,0.018741441890597343,0.04679017886519432,-0.998595654964447
128787.67,0.011543727479875088,-0.006697537377476692,-0.024808377027511597,0.09548988193273544,-0.03459901735186577,0.9875242114067078,-0.21328799426555634,3.5237464904785156,-0.3950323164463043,20,0.0,0.0,156,0.07254885137081146,0.14004775881767273,0.14765118062496185,0.01642156019806862,0.01855059154331684,0.04707372561097145,-0.9985841512680054
128789.661,0.011099099181592464,-0.006401241756975651,-0.014859220944344997,0.0917012169957161,-0.029635176062583923,0.9857482314109802,-0.42021444439888,3.4197189807891846,1.1580723524093628,20,0.0,0.0,156,0.07254885137081146,0.14004775881767273,0.14765118062496185,0.01642156019806862,0.01855059154331684,0.04707372561097145,-0.9985841512680054
128791.633,0.011099099181592464,-0.006401241756975651,-0.014859220944344997,0.08451230823993683,-0.022159390151500702,0.9840019345283508,-0.019194316118955612,3.225921630859375,10.089674949645996,20,0.0,0.0,156,0.07254885137081146,0.14004775881767273,0.14765118062496185,0.01642156019806862,0.01855059154331684,0.04707372561097145,-0.9985841512680054
128793.614,0.011099099181592464,-0.006401241756975651,-0.014859220944344997,0.06484077125787735,-0.02265324257314205,0.9858054518699646,0.8615704774856567,2.6775336265563965,22.314714431762695,20,0.0,0.0,156,0.07256761193275452,0.140053853392601,0.1477034091949463,0.016323842108249664,0.018420223146677017,0.04695449396967888,-0.998593807220459
128795.713,0.00466994009912014,-0.002371785929426551,-0.005128952208906412,0.04378605633974075,-0.025679007172584534,0.9886630177497864,1.246139645576477,1.8596893548965454,25.903696060180664,20,0.0,0.0,156,0.07256761193275452,0.140053853392601,0.1477034091949463,0.016323842108249664,0.018420223146677017,0.04695449396967888,-0.998593807220459
128797.584,0.00466994009912014,-0.002371785929426551,-0.005128952208906412,0.026495687663555145,-0.026978911831974983,0.9917128086090088,1.2429133653640747,1.0609467029571533,20.46739387512207,20,0.0,0.0,156,0.07256761193275452,0.140053853392601,0.1477034091949463,0.016323842108249664,0.018420223146677017,0.04695449396967888,-0.998593807220459
128799.565,0.00466994009912014,-0.002371785929426551,-0.005128952208906412,0.008397328667342663,-0.02937542088329792,0.9958407878875732,1.1958551406860352,0.5294073820114136,15.415268898010254,20,0.0,0.0,156,0.07258088141679764,0.14004144072532654,0.14765354990959167,0.016308512538671494,0.018499741330742836,0.046980082988739014,-0.998591423034668
128801.539,0.00418433640152216,-0.002056215424090624,0.005721786059439182,-0.004674732219427824,-0.03412965312600136,1.000797152519226,1.0830426216125488,0.3615175783634186,12.306294441223145,20,0.0,0.0,156,0.07258088141679764,0.14004144072532654,0.14765354990959167,0.016308512538671494,0.018499741330742836,0.046980082988739014,-0.998591423034668
128803.528,0.00418433640152216,-0.002056215424090624,0.005721786059439182,-0.006866874173283577,-0.040558744221925735,1.0056568384170532,0.8705334067344666,0.1315513402223587,6.1880717277526855,20,0.0,0.0,156,0.07258088141679764,0.14004144072532654,0.14765354990959167,0.016308512538671494,0.018499741330742836,0.046980082988739014,-0.998591423034668
128805.873,0.00418433640152216,-0.002056215424090624,0.005721786059439182,-0.005329033825546503,-0.04210326448082924,1.0092871189117432,0.5621614456176758,-0.5160384774208069,-1.2913422584533691,20,0.0,0.0,155,0.07256102561950684,0.140041321516037,0.14780408143997192,0.015599910169839859,0.017910350114107132,0.046837519854307175,-0.9986201524734497
128807.482,5.50779550394509e-05,0.0004886026727035642,-0.02340831235051155,-0.003820424899458885,-0.04141027480363846,1.0116571187973022,0.42432308197021484,-1.2110676765441895,-4.983186721801758,20,0.0,0.0,155,0.07256102561950684,0.140041321516037,0.14780408143997192,0.015599910169839859,0.017910350114107132,0.046837519854307175,-0.9986201524734497
128809.476,5.50779550394509e-05,0.0004886026727035642,-0.02340831235051155,-0.0001426850794814527,-0.04585912078619003,1.0130714178085327,0.3240260183811188,-1.5974127054214478,-5.540349960327148,20,0.0,0.0,155,0.07253310829401016,0.1400454193353653,0.14777180552482605,0.01550658792257309,0.017950693145394325,0.04676176607608795,-0.9986243844032288
128811.445,-0.00039937085239216685,0.0007860777550376952,-0.013673226349055767,0.007875517942011356,-0.052655138075351715,1.0138144493103027,0.016638541594147682,-1.7157732248306274,-7.975322723388672,20,0.0,0.0,155,0.07253310829401016,0.1400454193353653,0.14777180552482605,0.01550658792257309,0.017950693145394325,0.04676176607608795,-0.9986243844032288
128813.426,-0.00039937085239216685,0.0007860777550376952,-0.013673226349055767,0.023870430886745453,-0.05592062696814537,1.0132081508636475,-0.38818594813346863,-1.577256202697754,-13.647799491882324,20,0.0,0.0,155,0.07253310829401016,0.1400454193353653,0.14777180552482605,0.01550658792257309,0.017950693145394325,0.04676176607608795,-0.9986243844032288
128815.534,-0.005776153411716223,0.004393157083541155,-0.012751136906445026,0.045408185571432114,-0.055750638246536255,1.0108870267868042,-0.7284594178199768,-1.3664536476135254,-18.0395565032959,20,0.0,0.0,155,0.07293698936700821,0.13904063403606415,0.14877915382385254,0.010971026495099068,0.015014810487627983,0.04593276232481003,-0.9987714886665344
128817.388,-0.006275290623307228,0.004607351031154394,-0.0016353374812752008,0.06986566632986069,-0.05303797125816345,1.0068191289901733,-0.7498912215232849,-1.173807144165039,-16.75487518310547,20,0.0,0.0,155,0.07293698936700821,0.13904063403606415,0.14877915382385254,0.010971026495099068,0.015014810487627983,0.04593276232481003,-0.9987714886665344
128819.378,-0.006275290623307228,0.004607351031154394,-0.0016353374812752008,0.09381944686174393,-0.04476200416684151,1.0021090507507324,-0.5236935019493103,-0.8838578462600708,-8.77109146118164,20,0.0,0.0,155,0.07293698936700821,0.13904063403606415,0.14877915382385254,0.010971026495099068,0.015014810487627983,0.04593276232481003,-0.9987714886665344
128821.35,-0.006275290623307228,0.004607351031154394,-0.0016353374812752008,0.10913978517055511,-0.03277610242366791,0.997698962688446,0.006897593382745981,-0.6111573576927185,3.940127372741699,20,0.0,0.0,155,0.07288046181201935,0.1390707790851593,0.1487659513950348,0.01094822771847248,0.01527405809611082,0.04590023681521416,-0.9987692832946777
128823.332,-0.006757040973752737,0.0048127444460988045,0.009153932332992554,0.10986869782209396,-0.02405286766588688,0.9951029419898987,0.9160743355751038,-0.5670835971832275,14.57149887084961,20,0.0,0.0,155,0.07288046181201935,0.1390707790851593,0.1487659513950348,0.01094822771847248,0.01527405809611082,0.04590023681521416,-0.9987692832946777
128825.679,-0.01189621165394783,0.008322445675730705,0.009442467242479324,0.09759825468063354,-0.019710421562194824,0.9939352869987488,1.5404611825942993,-0.8369127511978149,17.450620651245117,20,0.0,0.0,155,0.07288046181201935,0.1390707790851593,0.1487659513950348,0.01094822771847248,0.01527405809611082,0.04590023681521416,-0.9987692832946777
128827.293,-0.01189621165394783,0.008322445675730705,0.009442467242479324,0.07739175111055374,-0.020880959928035736,0.9940059781074524,1.5144989490509033,-1.092675805091858,14.142951965332031,20,0.0,0.0,155,0.07273128628730774,0.13923363387584686,0.14869287610054016,0.011716313660144806,0.015789246186614037,0.04587937146425247,-0.9987534880638123
128829.285,-0.009211545810103416,0.006460036151111126,-0.019237348809838295,0.054667577147483826,-0.027671493589878082,0.9940541982650757,1.0848103761672974,-1.107222318649292,8.372869491577148,20,0.0,0.0,155,0.07273128628730774,0.13923363387584686,0.14869287610054016,0.011716313660144806,0.015789246186614037,0.04587937146425247,-0.9987534880638123
128831.261,-0.009211545810103416,0.006460036151111126,-0.019237348809838295,0.036609258502721786,-0.03449134901165962,0.9923515915870667,0.588502049446106,-1.0005799531936646,1.4695013761520386,20,0.0,0.0,155,0.07245944440364838,0.13997294008731842,0.14782880246639252,0.015622289851307869,0.01925087906420231,0.046964749693870544,-0.9985889196395874
128833.238,-0.009693041443824768,0.006769354920834303,-0.009553370997309685,0.028709905222058296,-0.03698980435729027,0.9895018935203552,0.1589338332414627,-1.0991543531417847,-5.206136226654053,20,0.0,0.0,155,0.07245944440364838,0.13997294008731842,0.14782880246639252,0.015622289851307869,0.01925087906420231,0.046964749693870544,-0.9985889196395874
128835.337,-0.014603916555643082,0.010172619484364986,-0.010334497317671776,0.032340165227651596,-0.03667802736163139,0.9862013459205627,-0.24959848821163177,-1.4960546493530273,-9.796500205993652,20,0.0,0.0,155,0.07245944440364838,0.13997294008731842,0.14782880246639252,0.015622289851307869,0.01925087906420231,0.046964749693870544,-0.9985889196395874
128837.2,-0.014603916555643082,0.010172619484364986,-0.010334497317671776,0.04373648762702942,-0.034418895840644836,0.9838555455207825,-0.6010888814926147,-1.6932076215744019,-10.509687423706055,20,0.0,0.0,155,0.07246188074350357,0.14005079865455627,0.1478336900472641,0.01544292364269495,0.018134580925107002,0.0467408262193203,-0.9986230134963989
128839.197,-0.015138729475438595,0.01051830779761076,0.0006503740441985428,0.05415404587984085,-0.031845852732658386,0.9843838214874268,-0.5926935076713562,-1.708458662033081,-6.188954830169678,20,0.0,0.0,155,0.07246188074350357,0.14005079865455627,0.1478336900472641,0.01544292364269495,0.018134580925107002,0.0467408262193203,-0.9986230134963989
128841.163,-0.015138729475438595,0.01051830779761076,0.0006503740441985428,0.06141124665737152,-0.033491190522909164,0.9876437187194824,-0.014251502230763435,-1.7120928764343262,-0.984631359577179,20,0.0,0.0,155,0.07246188074350357,0.14005079865455627,0.1478336900472641,0.01544292364269495,0.018134580925107002,0.0467408262193203,-0.9986230134963989
128843.146,-0.015138729475438595,0.01051830779761076,0.0006503740441985428,0.06676635146141052,-0.03807060793042183,0.9916677474975586,0.377200186252594,-1.520042896270752,0.264151006937027,20,0.0,0.0,155,0.07242997735738754,0.14003720879554749,0.1478135585784912,0.015297208912670612,0.01825222559273243,0.046853579580783844,-0.9986178874969482
128845.487,-0.02038256824016571,0.014173931442201138,0.011403925716876984,0.07060037553310394,-0.04227808862924576,0.9960831999778748,0.19580653309822083,-1.1755670309066772,-1.1613227128982544,20,0.0,0.0,155,0.07242997735738754,0.14003720879554749,0.1478135585784912,0.015297208912670612,0.01825222559273243,0.046853579580783844,-0.9986178874969482
128847.106,-0.018236497417092323,0.01302107609808445,0.011641871184110641,0.07313470542430878,-0.04358673840761185,0.9996936917304993,-0.02742110565304756,-1.181239366531372,-1.5517483949661255,20,0.0,0.0,155,0.07242997735738754,0.14003720879554749,0.1478135585784912,0.015297208912670612,0.01825222559273243,0.046853579580783844,-0.9986178874969482
128849.097,-0.016080280765891075,0.011805943213403225,-0.027926351875066757,0.07357357442378998,-0.04130426049232483,1.0019766092300415,-0.14605721831321716,-1.7610416412353516,-0.901823103427887,20,0.0,0.0,155,0.07271694391965866,0.13925166428089142,0.14871849119663239,0.011769790202379227,0.015817170962691307,0.04580199345946312,-0.9987559914588928
128851.071,-0.01659477688372135,0.012055760249495506,-0.017934273928403854,0.06979236006736755,-0.03721402958035469,1.0037339925765991,-0.22028155624866486,-2.2496719360351562,-0.9079017043113708,20,0.0,0.0,155,0.07271694391965866,0.13925166428089142,0.14871849119663239,0.011769790202379227,0.015817170962691307,0.04580199345946312,-0.9987559914588928
128853.05,-0.01659477688372135,0.012055760249495506,-0.017934273928403854,0.06279535591602325,-0.03315030783414841,1.0056065320968628,-0.1610633283853531,-2.167909860610962,-1.4628170728683472,20,0.0,0.0,155,0.07271694391965866,0.13925166428089142,0.14871849119663239,0.011769790202379227,0.015817170962691307,0.04580199345946312,-0.9987559914588928
128855.148,-0.021202852949500084,0.015335896983742714,-0.018108641728758812,0.05822399631142616,-0.029846791177988052,1.0076621770858765,-0.06651796400547028,-1.7152705192565918,-1.7716798782348633,20,0.0,0.0,155,0.0727054551243782,0.13924996554851532,0.14867667853832245,0.011741411872208118,0.016024256125092506,0.04592682421207428,-0.9987473487854004
128857.014,-0.02177640050649643,0.015609229914844036,-0.006768235471099615,0.05906273052096367,-0.026312261819839478,1.0096278190612793,-0.06531877815723419,-1.2010290622711182,-1.7648557424545288,20,0.0,0.0,155,0.0727054551243782,0.13924996554851532,0.14867667853832245,0.011741411872208118,0.016024256125092506,0.04592682421207428,-0.9987473487854004
128858.997,-0.02177640050649643,0.015609229914844036,-0.006768235471099615,0.06309614330530167,-0.023555777966976166,1.0109288692474365,-0.10210997611284256,-0.9110743403434753,-1.556176781654358,20,0.0,0.0,155,0.0727931335568428,0.13911619782447815,0.14871543645858765,0.011256148107349873,0.015560194849967957,0.0458352193236351,-0.9987643957138062
128860.975,-0.02232443355023861,0.0158553309738636,0.004243910778313875,0.06749601662158966,-0.023619556799530983,1.0109421014785767,-0.030093219131231308,-1.0854123830795288,-1.015786051750183,20,0.0,0.0,155,0.0727931335568428,0.13911619782447815,0.14871543645858765,0.011256148107349873,0.015560194849967957,0.0458352193236351,-0.9987643957138062
128862.956,-0.02232443355023861,0.0158553309738636,0.004243910778313875,0.07024724036455154,-0.025352055206894875,1.009194016456604,-0.0346708707511425,-1.462167501449585,-0.6033824682235718,20,0.0,0.0,155,0.0727931335568428,0.13911619782447815,0.14871543645858765,0.011256148107349873,0.015560194849967957,0.0458352193236351,-0.9987643957138062
128865.306,-0.026821784675121307,0.01910794898867607,0.004976069554686546,0.06964802742004395,-0.02720765210688114,1.005896806716919,-0.07258101552724838,-1.5728620290756226,-0.5404807329177856,20,0.0,0.0,155,0.07267309725284576,0.13926413655281067,0.14868998527526855,0.01174863614141941,0.016153456643223763,0.04582943394780159,-0.9987495541572571
128866.927,-0.026821784675121307,0.01910794898867607,0.004976069554686546,0.06248108297586441,-0.029457172378897667,1.0021963119506836,-0.15295419096946716,-0.9858337044715881,-0.28531143069267273,20,0.0,0.0,154,0.07267309725284576,0.13926413655281067,0.14868998527526855,0.01174863614141941,0.016153456643223763,0.04582943394780159,-0.9987495541572571
128868.907,-0.022232091054320335,0.016659460961818695,-0.022910226136446,0.048714324831962585,-0.03328578919172287,0.9980530738830566,-0.4004207253456116,1.0931034088134766,-1.3573952913284302,20,0.0,0.0,154,0.07267309725284576,0.13926413655281067,0.14868998527526855,0.01174863614141941,0.016153456643223763,0.04582943394780159,-0.9987495541572571
128870.88,-0.022232091054320335,0.016659460961818695,-0.022910226136446,0.0438232421875,-0.03981378674507141,0.9936832785606384,-0.7470409870147705,2.2961723804473877,-7.989719390869141,20,0.0,0.0,154,0.07267154008150101,0.13927407562732697,0.1487135887145996,0.01170973852276802,0.01606016606092453,0.04580794647336006,-0.9987525939941406
128872.862,-0.022773772478103638,0.0169205442070961,-0.012922054156661034,0.06646881252527237,-0.04852373152971268,0.9887412786483765,-1.0753847360610962,-0.7084331512451172,-18.3768310546875,20,0.0,0.0,154,0.07267154008150101,0.13927407562732697,0.1487135887145996,0.01170973852276802,0.01606016606092453,0.04580794647336006,-0.9987525939941406
128874.976,-0.0271622221916914,0.020090503618121147,-0.012951876036822796,0.11493238061666489,-0.05403396859765053,0.9844443798065186,-0.8370921611785889,-1.9204320907592773,-20.11454963684082,20,0.0,0.0,154,0.07267154008150101,0.13927407562732697,0.1487135887145996,0.01170973852276802,0.01606016606092453,0.04580794647336006,-0.9987525939941406
128876.823,-0.0271622221916914,0.020090503618121147,-0.012951876036822796,0.1454923152923584,-0.04432447999715805,0.9815278649330139,-0.03916550055146217,2.28109073638916,-2.5118956565856934,20,0.0,0.0,154,0.07263912260532379,0.13924114406108856,0.1487123668193817,0.011692949570715427,0.016075769439339638,0.045731816440820694,-0.9987560510635376
128878.811,-0.02776399441063404,0.02037012204527855,-0.0015674213645979762,0.13570694625377655,-0.02626567892730236,0.9804985523223877,1.1694884300231934,2.642564535140991,28.066293716430664,20,0.0,0.0,154,0.07263912260532379,0.13924114406108856,0.1487123668193817,0.011692949570715427,0.016075769439339638,0.045731816440820694,-0.9987560510635376
128880.787,-0.02776399441063404,0.02037012204527855,-0.0015674213645979762,0.13759486377239227,-0.010677541606128216,0.9818916916847229,2.4835445880889893,-3.459214687347412,53.61879348754883,20,0.0,0.0,154,0.07259537279605865,0.13942107558250427,0.14859285950660706,0.01226136926561594,0.016070347279310226,0.04564426839351654,-0.9987533092498779
128882.768,-0.03244176506996155,0.023699365556240082,0.00762657355517149,0.16019238531589508,0.0022061613854020834,0.977222740650177,2.2617709636688232,-4.092227935791016,58.37053298950195,20,0.0,0.0,154,0.07259537279605865,0.13942107558250427,0.14859285950660706,0.01226136926561594,0.016070347279310226,0.04564426839351654,-0.9987533092498779
128885.107,-0.03244176506996155,0.023699365556240082,0.00762657355517149,0.12912443280220032,-0.015233856625854969,0.9788982272148132,0.4334884285926819,3.4108104705810547,29.99168586730957,20,0.0,0.0,154,0.07259537279605865,0.13942107558250427,0.14859285950660706,0.01226136926561594,0.016070347279310226,0.04564426839351654,-0.9987533092498779
128886.731,-0.03244176506996155,0.023699365556240082,0.00762657355517149,0.04402101784944534,-0.04524795338511467,0.9824323654174805,-1.776328206062317,5.992271423339844,-21.8665714263916,20,0.0,0.0,154,0.07259920239448547,0.13930627703666687,0.1486617475748062,0.011890066787600517,0.016209304332733154,0.04581644758582115,-0.9987476468086243
128888.72,-0.03244176506996155,0.023699365556240082,0.00762657355517149,-0.016783924773335457,-0.048868291079998016,0.9864611029624939,-3.3369407653808594,-0.2743692398071289,-60.461082458496094,20,0.0,0.0,154,0.07259920239448547,0.13930627703666687,0.1486617475748062,0.011890066787600517,0.016209304332733154,0.04581644758582115,-0.9987476468086243
128890.693,-0.023830607533454895,0.020956259220838547,-0.020617861300706863,-0.02822926454246044,-0.04568304866552353,0.9885249137878418,-3.7227566242218018,-5.965266704559326,-62.132713317871094,20,0.0,0.0,154,0.07259920239448547,0.13930627703666687,0.1486617475748062,0.011890066787600517,0.016209304332733154,0.04581644758582115,-0.9987476468086243
128892.674,-0.023830607533454895,0.020956259220838547,-0.020617861300706863,-0.024608707055449486,-0.0555371418595314,0.9892624020576477,-3.440561532974243,-4.147502422332764,-36.299400329589844,20,0.0,0.0,154,0.07271459698677063,0.13923567533493042,0.1487642377614975,0.011510401032865047,0.015936026349663734,0.045759908854961395,-0.9987590312957764
128894.783,-0.028591861948370934,0.024239487946033478,-0.0105409175157547,-0.0022661255206912756,-0.05351662635803223,0.9905412197113037,-2.3219778537750244,1.191790223121643,-5.7768778800964355,20,0.0,0.0,154,0.07271459698677063,0.13923567533493042,0.1487642377614975,0.011510401032865047,0.015936026349663734,0.045759908854961395,-0.9987590312957764
128896.636,-0.028591861948370934,0.024239487946033478,-0.0105409175157547,0.04697506129741669,-0.02531229332089424,0.9908867478370667,-0.5513336062431335,3.410470724105835,14.861522674560547,20,0.0,0.0,154,0.07271459698677063,0.13923567533493042,0.1487642377614975,0.011510401032865047,0.015936026349663734,0.045759908854961395,-0.9987590312957764
128898.626,-0.028591861948370934,0.024239487946033478,-0.0105409175157547,0.09500826895236969,-0.008485482074320316,0.9922149181365967,1.353878378868103,1.6903997659683228,18.34450912475586,20,0.0,0.0,154,0.07287473976612091,0.1391967087984085,0.14888601005077362,0.011708291247487068,0.015507902018725872,0.04531304910778999,-0.9987838864326477
128900.603,-0.029232583940029144,0.024514924734830856,0.0009142408962361515,0.11416493356227875,-0.02325606718659401,0.9977388978004456,1.939395546913147,-1.7688804864883423,7.864798545837402,20,0.0,0.0,154,0.07287473976612091,0.1391967087984085,0.14888601005077362,0.011708291247487068,0.015507902018725872,0.04531304910778999,-0.9987838864326477
128902.58,-0.029232583940029144,0.024514924734830856,0.0009142408962361515,0.11406847834587097,-0.04917696490883827,1.0051192045211792,0.7970729470252991,-3.0409834384918213,-4.805150508880615,20,0.0,0.0,154,0.07257464528083801,0.13929736614227295,0.1486438512802124,0.011859163641929626,0.016329282894730568,0.045780349522829056,-0.998747706413269
128904.919,-0.03391067311167717,0.027799928560853004,0.012956458143889904,0.11522975564002991,-0.0544588603079319,1.009806513786316,-0.8758150935173035,-0.31239619851112366,-6.791747093200684,20,0.0,0.0,154,0.07257464528083801,0.13929736614227295,0.1486438512802124,0.011859163641929626,0.016329282894730568,0.045780349522829056,-0.998747706413269
128906.554,-0.03391067311167717,0.027799928560853004,0.012956458143889904,0.1133529394865036,-0.04140385240316391,1.0087412595748901,-1.4121665954589844,1.5675829648971558,8.039854049682617,20,0.0,0.0,154,0.07257464528083801,0.13929736614227295,0.1486438512802124,0.011859163641929626,0.016329282894730568,0.045780349522829056,-0.998747706413269
128908.539,-0.025868337601423264,0.02454211376607418,-0.027719946578145027,0.1120447888970375,-0.02974553592503071,1.008763313293457,-0.2616211473941803,-1.1209547519683838,28.50663185119629,20,0.0,0.0,153,0.07274354994297028,0.13905011117458344,0.14873725175857544,0.01098751649260521,0.01569746807217598,0.045913469046354294,-0.9987617135047913
128910.505,-0.026500245556235313,0.0247966255992651,-0.01732870563864708,0.11961855739355087,-0.02502904273569584,1.0076640844345093,1.11222243309021,-2.348965644836426,38.01663589477539,20,0.0,0.0,153,0.07274354994297028,0.13905011117458344,0.14873725175857544,0.01098751649260521,0.01569746807217598,0.045913469046354294,-0.9987617135047913
128912.486,-0.026500245556235313,0.0247966255992651,-0.01732870563864708,0.11955220997333527,-0.03205815330147743,1.0056898593902588,1.9239767789840698,2.5585732460021973,32.75704574584961,20,0.0,0.0,153,0.07274354994297028,0.13905011117458344,0.14873725175857544,0.01098751649260521,0.01569746807217598,0.045913469046354294,-0.9987617135047913
128914.584,-0.03049333579838276,0.02779270149767399,-0.01659850962460041,0.09596309810876846,-0.04224803298711777,1.002286434173584,1.9204083681106567,5.9351420402526855,22.744792938232422,20,0.0,0.0,153,0.07293429225683212,0.1390712708234787,0.1488882452249527,0.011204695329070091,0.015305887907743454,0.045439574867486954,-0.9987870454788208
128916.448,-0.031179679557681084,0.02806740440428257,-0.004707007668912411,0.06352817267179489,-0.03847822919487953,1.000194787979126,0.778128981590271,1.3095858097076416,19.770566940307617,20,0.0,0.0,153,0.07293429225683212,0.1390712708234787,0.1488882452249527,0.011204695329070091,0.015305887907743454,0.045439574867486954,-0.9987870454788208
128918.43,-0.031179679557681084,0.02806740440428257,-0.004707007668912411,0.033318955451250076,-0.01654163934290409,0.9975554943084717,-1.3916685581207275,-4.388054370880127,26.162206649780273,20,0.0,0.0,153,0.07293429225683212,0.1390712708234787,0.1488882452249527,0.011204695329070091,0.015305887907743454,0.045439574867486954,-0.9987870454788208
128920.416,-0.031179679557681084,0.02806740440428257,-0.004707007668912411,0.01137273944914341,0.018289105966687202,0.9924697279930115,-4.367063999176025,-2.825387954711914,26.605499267578125,20,0.0,0.0,153,0.07283307611942291,0.13921499252319336,0.1488184779882431,0.01175562385469675,0.01566941663622856,0.04539409279823303,-0.9987771511077881
128922.392,-0.031842999160289764,0.02834293805062771,0.00682774418964982,0.010942305438220501,0.06534868478775024,0.9872764348983765,-7.439995765686035,1.910872459411621,4.2264933586120605,20,0.0,0.0,153,0.07283307611942291,0.13921499252319336,0.1488184779882431,0.01175562385469675,0.01566941663622856,0.04539409279823303,-0.9987771511077881
128924.737,-0.0356600321829319,0.0312437042593956,0.006571737118065357,0.023409834131598473,0.12290763854980469,0.978769838809967,-9.524262428283691,1.4744646549224854,-27.939306259155273,20,0.0,0.0,153,0.07279196381568909,0.13911738991737366,0.14876505732536316,0.011239228770136833,0.015576133504509926,0.045752499252557755,-0.9987682104110718
128926.355,-0.036373935639858246,0.03151975944638252,0.019535817205905914,0.022715438157320023,0.16566064953804016,0.975260317325592,-9.859850883483887,-3.4620349407196045,-36.560829162597656,20,0.0,0.0,153,0.07279196381568909,0.13911738991737366,0.14876505732536316,0.011239228770136833,0.015576133504509926,0.045752499252557755,-0.9987682104110718
128928.342,-0.036373935639858246,0.03151975944638252,0.019535817205905914,0.002963446080684662,0.1671111136674881,0.9821797013282776,-8.998528480529785,-6.664315223693848,-12.5787992477417,20,0.0,0.0,155,0.07279196381568909,0.13911738991737366,0.14876505732536316,0.011239228770136833,0.015576133504509926,0.045752499252557755,-0.9987682104110718
128930.317,-0.03154730051755905,0.030534163117408752,-0.023275919258594513,-0.024379044771194458,0.12709078192710876,0.994942307472229,-8.215545654296875,-5.686790466308594,19.179323196411133,20,0.0,0.0,155,0.07238118350505829,0.14022982120513916,0.14772164821624756,0.01689927652478218,0.019121261313557625,0.04667975753545761,-0.998583972454071
128932.298,-0.035710327327251434,0.03361703082919121,-0.014482980594038963,-0.040584854781627655,0.0736086294054985,1.0068359375,-8.641555786132812,-2.460697889328003,32.00773620605469,20,0.0,0.0,155,0.07238118350505829,0.14022982120513916,0.14772164821624756,0.01689927652478218,0.019121261313557625,0.04667975753545761,-0.998583972454071
128934.399,-0.035710327327251434,0.03361703082919121,-0.014482980594038963,-0.03912920877337456,0.0267515629529953,1.0155599117279053,-9.92910099029541,-0.018720466643571854,18.163066864013672,20,0.0,0.0,155,0.07238118350505829,0.14022982120513916,0.14772164821624756,0.01689927652478218,0.019121261313557625,0.04667975753545761,-0.998583972454071
128936.26,-0.035710327327251434,0.03361703082919121,-0.014482980594038963,-0.01934226229786873,-0.00236975634470582,1.0203733444213867,-10.702495574951172,-1.15779447555542,-9.982994079589844,20,0.0,0.0,155,0.0724170058965683,0.1403607428073883,0.14771555364131927,0.01756763830780983,0.01947801373898983,0.046919822692871094,-0.9985542297363281
128938.242,-0.0363900288939476,0.0339764840900898,-0.0026655695401132107,0.008967991918325424,-0.00626834761351347,1.0249407291412354,-10.659069061279297,-4.0948615074157715,-24.184764862060547,20,0.0,0.0,155,0.0724170058965683,0.1403607428073883,0.14771555364131927,0.01756763830780983,0.01947801373898983,0.046919822692871094,-0.9985542297363281
128940.223,-0.0363900288939476,0.0339764840900898,-0.0026655695401132107,0.031943026930093765,0.003652636893093586,1.0316911935806274,-10.013107299804688,-3.766953468322754,-6.859350204467773,20,0.0,0.0,155,0.0724170058965683,0.1403607428073883,0.14771555364131927,0.01756763830780983,0.01947801373898983,0.046919822692871094,-0.9985542297363281
128942.204,-0.0363900288939476,0.0339764840900898,-0.0026655695401132107,0.04085494205355644,0.0035297328140586615,1.0407060384750366,-9.469144821166992,-2.5779311656951904,20.521257400512695,20,0.0,0.0,155,0.07237252593040466,0.14052245020866394,0.14756743609905243,0.017941618338227272,0.019977176561951637,0.04781999811530113,-0.9984950423240662
128944.54,-0.040743861347436905,0.03731926158070564,0.012599758803844452,0.033116333186626434,-0.0019059290643781424,1.0484182834625244,-10.249974250793457,-8.105274200439453,24.29316520690918,20,0.0,0.0,155,0.07237252593040466,0.14052245020866394,0.14756743609905243,0.017941618338227272,0.019977176561951637,0.04781999811530113,-0.9984950423240662
128946.176,-0.040743861347436905,0.03731926158070564,0.012599758803844452,0.018567096441984177,0.008932070806622505,1.0503545999526978,-12.351271629333496,-14.272640228271484,6.82871675491333,20,0.0,0.0,155,0.07237252593040466,0.14052245020866394,0.14756743609905243,0.017941618338227272,0.019977176561951637,0.04781999811530113,-0.9984950423240662
128948.153,-0.040743861347436905,0.03731926158070564,0.012599758803844452,0.022468483075499535,0.047144267708063126,1.0459997653961182,-14.862184524536133,-7.9891228675842285,-5.19512939453125,20,0.0,0.0,155,0.07228977233171463,0.14069664478302002,0.14761604368686676,0.018470309674739838,0.020435355603694916,0.04778192192316055,-0.9984779357910156
128950.132,-0.03707321733236313,0.03780209273099899,-0.01851239986717701,0.046656593680381775,0.111164391040802,1.035386085510254,-17.161785125732422,-0.053192030638456345,0.19633391499519348,20,0.0,0.0,155,0.07228977233171463,0.14069664478302002,0.14761604368686676,0.018470309674739838,0.020435355603694916,0.04778192192316055,-0.9984779357910156
128952.12,-0.03707321733236313,0.03780209273099899,-0.01851239986717701,0.08212903141975403,0.179082989692688,1.035939335823059,-17.26839256286621,-7.962972164154053,10.318198204040527,20,0.0,0.0,155,0.07228977233171463,0.14069664478302002,0.14761604368686676,0.018470309674739838,0.020435355603694916,0.04778192192316055,-0.9984779357910156
128954.221,-0.04168878123164177,0.04159962013363838,-0.0014732243726029992,0.12073446065187454,0.21660172939300537,1.0496947765350342,-14.014100074768066,-16.103849411010742,16.6085147857666,20,0.0,0.0,155,0.07218504697084427,0.14093241095542908,0.14768488705158234,0.019238581880927086,0.020853931084275246,0.047589801251888275,-0.9984639286994934
128956.072,-0.04168878123164177,0.04159962013363838,-0.0014732243726029992,0.0956699550151825,0.18788102269172668,1.057621717453003,-8.468681335449219,-5.892706871032715,19.91274070739746,20,0.0,0.0,155,0.07218504697084427,0.14093241095542908,0.14768488705158234,0.019238581880927086,0.020853931084275246,0.047589801251888275,-0.9984639286994934
128958.058,-0.04168878123164177,0.04159962013363838,-0.0014732243726029992,-0.023721715435385704,0.06072932481765747,1.059990644454956,-0.8438280820846558,5.634017467498779,10.117202758789062,20,0.0,0.0,155,0.0721702054142952,0.1409567892551422,0.14694441854953766,0.019360875710844994,0.019684603437781334,0.048046212643384933,-0.99846351146698
128960.037,-0.04235069453716278,0.04192865267395973,0.01042617205530405,-0.1569644957780838,-0.16426268219947815,1.0483936071395874,9.665979385375977,1.0993530750274658,-2.8372886180877686,20,0.0,0.0,155,0.0721702054142952,0.1409567892551422,0.14694441854953766,0.019360875710844994,0.019684603437781334,0.048046212643384933,-0.99846351146698
128962.016,-0.04235069453716278,0.04192865267395973,0.01042617205530405,-0.12840841710567474,-0.41786178946495056,0.9911515712738037,20.07530403137207,-7.597532272338867,1.0033074617385864,20,0.0,0.0,155,0.0721702054142952,0.1409567892551422,0.14694441854953766,0.019360875710844994,0.019684603437781334,0.048046212643384933,-0.99846351146698
128964.343,-0.045925796031951904,0.04537220671772957,0.015089350752532482,0.031326763331890106,-0.6436896324157715,0.9481292963027954,26.851959228515625,-3.838041305541992,12.887916564941406,20,0.0,0.0,155,0.0720466747879982,0.14112718403339386,0.14700455963611603,0.019018257036805153,0.020066380500793457,0.04746457561850548,-0.9984902739524841
128965.985,-0.04664009436964989,0.045712295919656754,0.02844783291220665,0.10000179708003998,-0.9178564548492432,0.940689206123352,31.184484481811523,8.48225212097168,26.66335678100586,20,0.0,0.0,155,0.0720466747879982,0.14112718403339386,0.14700455963611603,0.019018257036805153,0.020066380500793457,0.04746457561850548,-0.9984902739524841
128967.97,-0.04664009436964989,0.045712295919656754,0.02844783291220665,0.06280305981636047,-1.3453913927078247,0.9999293088912964,39.37379455566406,19.020179748535156,43.67436981201172,20,0.0,0.0,155,0.0720466747879982,0.14112718403339386,0.14700455963611603,0.019018257036805153,0.020066380500793457,0.04746457561850548,-0.9984902739524841
128969.939,-0.04664009436964989,0.045712295919656754,0.02844783291220665,0.04802102968096733,-1.8342077732086182,1.1690431833267212,47.720611572265625,18.36873435974121,43.77701950073242,20,0.0,0.0,156,0.07176307588815689,0.14090095460414886,0.1463310867547989,0.015742631629109383,0.020318271592259407,0.049174193292856216,-0.9984594583511353
128971.922,-0.03043963573873043,0.030597953125834465,0.0024073594249784946,0.1504802405834198,-2.125908613204956,1.360571026802063,44.83820343017578,4.499745845794678,-8.399373054504395,20,0.0,0.0,156,0.07176307588815689,0.14090095460414886,0.1463310867547989,0.015742631629109383,0.020318271592259407,0.049174193292856216,-0.9984594583511353
128974.037,-0.03443385660648346,0.03436416760087013,0.004748538602143526,0.26539376378059387,-2.109861135482788,1.5343672037124634,32.21768569946289,-10.894967079162598,-91.78961181640625,20,0.0,0.0,156,0.07176307588815689,0.14090095460414886,0.1463310867547989,0.015742631629109383,0.020318271592259407,0.049174193292856216,-0.9984594583511353
128975.883,-0.03443385660648346,0.03436416760087013,0.004748538602143526,0.3010525405406952,-1.8448907136917114,1.7240190505981445,18.112823486328125,-15.505390167236328,-126.72785186767578,20,0.0,0.0,156,0.07149524986743927,0.14012287557125092,0.14620865881443024,0.013164202682673931,0.019965382292866707,0.050539519637823105,-0.9984357357025146
128977.865,-0.03520963340997696,0.03477881848812103,0.016730494797229767,0.2950708568096161,-1.4049057960510254,1.9194669723510742,7.627808570861816,-15.803682327270508,-88.2425537109375,20,0.0,0.0,156,0.07149524986743927,0.14012287557125092,0.14620865881443024,0.013164202682673931,0.019965382292866707,0.050539519637823105,-0.9984357357025146
128979.849,-0.03520963340997696,0.03477881848812103,0.016730494797229767,0.30422237515449524,-0.9336106777191162,1.9894472360610962,10.586039543151855,-30.375286102294922,-13.452922821044922,20,0.0,0.0,156,0.07116805762052536,0.1388530135154724,0.1465303748846054,0.012767462991178036,0.02007107250392437,0.04959059879183769,-0.9984863996505737
128981.832,-0.035972826182842255,0.03507615998387337,0.02838302217423916,0.37380269169807434,-0.6388750076293945,2.0627448558807373,29.1219539642334,-49.211936950683594,48.35319137573242,20,0.0,0.0,156,0.07116805762052536,0.1388530135154724,0.1465303748846054,0.012767462991178036,0.02007107250392437,0.04959059879183769,-0.9984863996505737
128984.166,-0.042881693691015244,0.04021867364645004,0.1007390171289444,0.27835217118263245,-0.9829337000846863,2.215618133544922,61.86116027832031,-44.73929214477539,76.21894836425781,20,0.0,0.0,156,0.07116805762052536,0.1388530135154724,0.1465303748846054,0.012767462991178036,0.02007107250392437,0.04959059879183769,-0.9984863996505737
128985.793,-0.042881693691015244,0.04021867364645004,0.1007390171289444,-0.0856761634349823,-1.8186324834823608,1.9301669597625732,108.63549041748047,-28.28863525390625,112.5676498413086,20,0.0,0.0,156,0.07268206775188446,0.1363622397184372,0.14975392818450928,0.007007926236838102,0.015130873769521713,0.04954736679792404,-0.9986326098442078
128987.788,-0.04365822672843933,0.04030903801321983,0.11413709819316864,-0.33713433146476746,-2.13557505607605,1.3418176174163818,127.13101959228516,-34.53940200805664,60.38780975341797,20,0.0,0.0,156,0.07268206775188446,0.1363622397184372,0.14975392818450928,0.007007926236838102,0.015130873769521713,0.04954736679792404,-0.9986326098442078
128989.763,-0.06487168371677399,0.008037084713578224,0.13493356108665466,-0.13361603021621704,-1.4580035209655762,0.7715243697166443,102.71308135986328,-47.89502716064453,-137.20281982421875,20,-4.0,4.0,154,0.07268206775188446,0.1363622397184372,0.14975392818450928,0.007007926236838102,0.015130873769521713,0.04954736679792404,-0.9986326098442078
128991.734,-0.061871495097875595,0.004899238236248493,0.08373948186635971,0.22483815252780914,-0.4200901687145233,0.26987528800964355,76.96488189697266,-34.56412124633789,-185.5960235595703,20,-4.0,4.0,154,0.07144404947757721,0.13560619950294495,0.14978373050689697,0.005020972806960344,0.023647800087928772,0.047257307916879654,-0.9985902309417725
128993.835,-0.06763085722923279,0.00892278179526329,0.13916832208633423,0.09664567559957504,0.23644398152828217,0.17902715504169464,65.56339263916016,-1.3853557109832764,12.54356861114502,20,-4.0,4.0,154,0.07144404947757721,0.13560619950294495,0.14978373050689697,0.005020972806960344,0.023647800087928772,0.047257307916879654,-0.9985902309417725
128995.704,-0.06763085722923279,0.00892278179526329,0.13916832208633423,-0.3545636236667633,0.6069930195808411,0.4089140295982361,32.430633544921875,12.517812728881836,116.98820495605469,20,-4.0,4.0,154,0.07144404947757721,0.13560619950294495,0.14978373050689697,0.005020972806960344,0.023647800087928772,0.047257307916879654,-0.9985902309417725
128997.678,-0.06763085722923279,0.00892278179526329,0.13916832208633423,-0.3933377265930176,1.1708500385284424,0.5886068940162659,-31.711267471313477,4.074231147766113,-36.5128059387207,20,-4.0,4.0,154,0.07125861942768097,0.13401170074939728,0.15105198323726654,0.004672858398407698,0.025161748751997948,0.049331922084093094,-0.9984545111656189
128999.662,-0.06822243332862854,0.009379536844789982,0.15105250477790833,-0.12094588577747345,1.9068714380264282,0.7763147950172424,-93.48426818847656,-1.5060316324234009,-187.7668914794922,20,-4.0,4.0,154,0.07125861942768097,0.13401170074939728,0.15105198323726654,0.004672858398407698,0.025161748751997948,0.049331922084093094,-0.9984545111656189
129001.642,-0.06822243332862854,0.009379536844789982,0.15105250477790833,0.029755206778645515,2.537447214126587,1.2297707796096802,-123.58527374267578,-7.87349796295166,-181.9241180419922,20,-4.0,4.0,154,0.07038120180368423,0.1331096738576889,0.1509913206100464,0.006350318901240826,0.02489437535405159,0.05427009239792824,-0.9981957077980042
129003.975,-0.06966027617454529,0.009922902099788189,0.11510008573532104,0.12631826102733612,2.911372661590576,1.9622374773025513,-117.52710723876953,-12.62420654296875,-125.47093963623047,20,-4.0,4.0,154,0.07038120180368423,0.1331096738576889,0.1509913206100464,0.006350318901240826,0.02489437535405159,0.05427009239792824,-0.9981957077980042
129005.605,-0.06966027617454529,0.009922902099788189,0.11510008573532104,0.11561117321252823,3.144580125808716,2.962789535522461,-88.82315063476562,-8.541871070861816,-41.399269104003906,20,-4.0,4.0,154,0.07038120180368423,0.1331096738576889,0.1509913206100464,0.006350318901240826,0.02489437535405159,0.05427009239792824,-0.9981957077980042
129007.586,-0.06966027617454529,0.009922902099788189,0.11510008573532104,-0.07160333544015884,3.240603446960449,3.7904765605926514,-48.02073669433594,-8.152920722961426,51.12635040283203,20,-4.0,4.0,154,0.07013601064682007,0.13189522922039032,0.15099307894706726,0.012171072885394096,0.023258140310645103,0.06306461244821548,-0.9976641535758972
129009.575,-0.07028287649154663,0.010245905257761478,0.12773078680038452,-0.12362699210643768,2.8953402042388916,3.950176477432251,12.920148849487305,-13.985573768615723,72.8190689086914,20,-7.0,-4.0,151,0.07013601064682007,0.13189522922039032,0.15099307894706726,0.012171072885394096,0.023258140310645103,0.06306461244821548,-0.9976641535758972
129011.547,-0.07289168983697891,0.010754287242889404,0.07271647453308105,0.05087366700172424,1.947012186050415,3.2756404876708984,89.36077880859375,-9.536380767822266,106.71038055419922,20,-7.0,-4.0,151,0.07013601064682007,0.13189522922039032,0.15099307894706726,0.012171072885394096,0.023258140310645103,0.06306461244821548,-0.9976641535758972
129013.644,-0.08873985707759857,0.015438321977853775,0.25861772894859314,0.13837556540966034,0.9082252979278564,2.0131304264068604,145.24546813964844,3.238924026489258,179.51295471191406,20,-7.0,-4.0,151,0.0709708034992218,0.1315567046403885,0.15379437804222107,0.012974226847290993,0.022047054022550583,0.06019320711493492,-0.9978588819503784
129015.521,-0.08936843276023865,0.01557874958962202,0.27070051431655884,0.10568439215421677,0.6922090649604797,0.778714120388031,152.91673278808594,-4.859508037567139,91.68033599853516,20,-7.0,-4.0,151,0.0709708034992218,0.1315567046403885,0.15379437804222107,0.012974226847290993,0.022047054022550583,0.06019320711493492,-0.9978588819503784
129017.492,-0.08936843276023865,0.01557874958962202,0.27070051431655884,0.14978143572807312,1.4056068658828735,-0.17024469375610352,125.37954711914062,-23.44296646118164,-151.23849487304688,20,-7.0,-4.0,151,0.0709708034992218,0.1315567046403885,0.15379437804222107,0.012974226847290993,0.022047054022550583,0.06019320711493492,-0.9978588819503784
129019.471,-0.08936843276023865,0.01557874958962202,0.27070051431655884,0.3309715688228607,2.239945888519287,-0.5888331532478333,122.44441986083984,-19.004026412963867,-261.30224609375,20,-7.0,-4.0,151,0.07082877308130264,0.13303451240062714,0.156563401222229,0.0028152717277407646,0.0279754139482975,0.04720327630639076,-0.9984896183013916
129021.463,-0.09002479165792465,0.015767879784107208,0.28273898363113403,0.32643789052963257,2.518602132797241,-0.3806251585483551,162.04605102539062,-0.9196529984474182,-102.90165710449219,20,-7.0,-4.0,151,0.07082877308130264,0.13303451240062714,0.156563401222229,0.0028152717277407646,0.0279754139482975,0.04720327630639076,-0.9984896183013916
129023.799,-0.09220860153436661,0.01896742545068264,0.2681746184825897,0.07639407366514206,2.1142945289611816,0.3699004054069519,198.53933715820312,5.550497055053711,79.04338836669922,20,-7.0,-4.0,151,0.07077141106128693,0.13441087305545807,0.15658871829509735,-0.004736925940960646,0.02629740722477436,0.04197424650192261,-0.9987612962722778
129025.417,-0.09286271780729294,0.019279619678854942,0.28120309114456177,-0.13601411879062653,1.3183526992797852,1.357125163078308,199.75271606445312,-6.673618793487549,130.7559356689453,20,-7.0,-4.0,151,0.07077141106128693,0.13441087305545807,0.15658871829509735,-0.004736925940960646,0.02629740722477436,0.04197424650192261,-0.9987612962722778
129027.397,-0.09286271780729294,0.019279619678854942,0.28120309114456177,-0.12439775466918945,0.7088674306869507,2.1061253547668457,176.94992065429688,-22.098033905029297,131.23458862304688,20,-7.0,-4.0,151,0.07077141106128693,0.13441087305545807,0.15658871829509735,-0.004736925940960646,0.02629740722477436,0.04197424650192261,-0.9987612962722778
129029.396,-0.09286271780729294,0.019279619678854942,0.28120309114456177,-0.03427964448928833,0.47784051299095154,2.494837760925293,159.2436065673828,-27.442001342773438,76.90425872802734,20,-16.0,-23.0,146,0.07077141106128693,0.13441087305545807,0.15658871829509735,-0.004736925940960646,0.02629740722477436,0.04197424650192261,-0.9987612962722778
129031.363,-0.09286271780729294,0.019279619678854942,0.28120309114456177,-0.11565655469894409,0.2152317762374878,2.586608648300171,160.02755737304688,-30.12266731262207,-26.706363677978516,20,-16.0,-23.0,146,0.07080007344484329,0.13577112555503845,0.15778720378875732,-0.01498609408736229,0.027567023411393166,0.047046586871147156,-0.9983997344970703
129033.457,-0.12459342181682587,-0.037553247064352036,0.3022669851779938,-0.23779460787773132,-0.3534059226512909,2.549107074737549,166.22402954101562,-34.18486404418945,-83.84609985351562,20,-16.0,-23.0,146,0.07080007344484329,0.13577112555503845,0.15778720378875732,-0.01498609408736229,0.027567023411393166,0.047046586871147156,-0.9983997344970703
129035.321,-0.12459342181682587,-0.037553247064352036,0.3022669851779938,-0.08153621107339859,-1.0112895965576172,2.5091161727905273,150.05587768554688,-29.072256088256836,-77.35416412353516,20,-16.0,-23.0,146,0.07059639692306519,0.13719703257083893,0.16010655462741852,-0.023099655285477638,0.028809402137994766,0.051969293504953384,-0.9979658126831055
129037.302,-0.1250804364681244,-0.036322496831417084,0.31383708119392395,0.2102392613887787,-1.4024229049682617,2.4622130393981934,108.36508178710938,-12.571114540100098,-44.376564025878906,20,-16.0,-23.0,146,0.07059639692306519,0.13719703257083893,0.16010655462741852,-0.023099655285477638,0.028809402137994766,0.051969293504953384,-0.9979658126831055
129039.283,-0.1250804364681244,-0.036322496831417084,0.31383708119392395,0.267737478017807,-1.253527283668518,2.4326412677764893,56.62770080566406,3.6780362129211426,8.771744728088379,20,-16.0,-23.0,146,0.07059639692306519,0.13719703257083893,0.16010655462741852,-0.023099655285477638,0.028809402137994766,0.051969293504953384,-0.9979658126831055
129041.269,-0.1250804364681244,-0.036322496831417084,0.31383708119392395,0.11910273134708405,-0.7833970189094543,2.0945963859558105,22.57823371887207,9.44083309173584,49.1995735168457,20,-16.0,-23.0,146,0.07011057436466217,0.1384212076663971,0.1626703441143036,-0.02910212054848671,0.03157349303364754,0.04812056943774223,-0.9979181885719299
129043.599,-0.14115633070468903,-0.04591108486056328,0.46996816992759705,0.07842379808425903,-0.7479307055473328,1.3894411325454712,43.18732452392578,7.332234859466553,86.49633026123047,20,-16.0,-23.0,146,0.07011057436466217,0.1384212076663971,0.1626703441143036,-0.02910212054848671,0.03157349303364754,0.04812056943774223,-0.9979181885719299
129045.23,-0.14115633070468903,-0.04591108486056328,0.46996816992759705,0.1279376894235611,-1.5776633024215698,0.9858118891716003,96.87220764160156,14.768636703491211,186.78668212890625,20,-16.0,-23.0,146,0.06991398334503174,0.1382962316274643,0.16551075875759125,-0.02767963334918022,0.030145768076181412,0.045015450567007065,-0.9981476068496704
129047.207,-0.14163444936275482,-0.044524773955345154,0.482566773891449,0.09929081797599792,-2.878944158554077,1.0830292701721191,122.73941040039062,34.022361755371094,265.56036376953125,20,-16.0,-23.0,146,0.06991398334503174,0.1382962316274643,0.16551075875759125,-0.02767963334918022,0.030145768076181412,0.045015450567007065,-0.9981476068496704
129049.195,-0.14163444936275482,-0.044524773955345154,0.482566773891449,-0.021229106932878494,-3.9159438610076904,1.2082442045211792,106.22498321533203,38.85783767700195,161.3458251953125,20,-16.0,-23.0,146,0.06991398334503174,0.1382962316274643,0.16551075875759125,-0.02767963334918022,0.030145768076181412,0.045015450567007065,-0.9981476068496704
129051.169,-0.14163444936275482,-0.044524773955345154,0.482566773891449,-0.19125495851039886,-4.008002758026123,1.2364593744277954,61.167362213134766,13.76501178741455,-59.77129364013672,23,-28.0,-14.0,143,0.0695594847202301,0.13847163319587708,0.16770696640014648,-0.034072134643793106,0.028471048921346664,0.04213743656873703,-0.9981247782707214
129053.269,-0.1506473422050476,-0.09182307124137878,0.45982226729393005,-0.17964501678943634,-2.8627943992614746,1.2119793891906738,-0.6408580541610718,-13.247686386108398,-241.80816650390625,23,-28.0,-14.0,143,0.0695594847202301,0.13847163319587708,0.16770696640014648,-0.034072134643793106,0.028471048921346664,0.04213743656873703,-0.9981247782707214
129055.142,-0.1506473422050476,-0.09182307124137878,0.45982226729393005,-0.0711701512336731,-0.9525020718574524,1.1649909019470215,-61.27385330200195,-8.932293891906738,-284.749267578125,23,-28.0,-14.0,143,0.0695594847202301,0.13847163319587708,0.16770696640014648,-0.034072134643793106,0.028471048921346664,0.04213743656873703,-0.9981247782707214
129057.126,-0.1506473422050476,-0.09182307124137878,0.45982226729393005,-0.06859312951564789,0.6369835138320923,1.2021723985671997,-94.34129333496094,20.523584365844727,-100.78883361816406,23,-28.0,-14.0,143,0.0714922696352005,0.13494698703289032,0.1706712245941162,-0.04970189929008484,0.022410152480006218,0.029492052271962166,-0.9980770349502563
129059.095,-0.1512768417596817,-0.09045249968767166,0.4714447855949402,-0.054636333137750626,1.1735610961914062,1.2523622512817383,-119.2739028930664,36.25407028198242,216.559814453125,23,-28.0,-14.0,143,0.0714922696352005,0.13494698703289032,0.1706712245941162,-0.04970189929008484,0.022410152480006218,0.029492052271962166,-0.9980770349502563
129061.076,-0.1512768417596817,-0.09045249968767166,0.4714447855949402,0.0178376417607069,0.9020940661430359,1.2388747930526733,-163.3466033935547,22.65664291381836,380.0125732421875,23,-28.0,-14.0,143,0.0714922696352005,0.13494698703289032,0.1706712245941162,-0.04970189929008484,0.022410152480006218,0.029492052271962166,-0.9980770349502563
129063.412,-0.15676963329315186,-0.09955839067697525,0.4906596541404724,0.03449485823512077,0.45524299144744873,1.147613286972046,-215.07801818847656,7.116641998291016,282.0028076171875,23,-28.0,-14.0,143,0.06922701001167297,0.13678349554538727,0.17291727662086487,-0.02246394194662571,0.027943715453147888,0.028541116043925285,-0.998949408531189
129065.046,-0.15745891630649567,-0.09778600186109543,0.5032708048820496,-0.09256625175476074,0.23427115380764008,1.1099653244018555,-247.04449462890625,4.86780309677124,60.436954498291016,23,-28.0,-14.0,143,0.06922701001167297,0.13678349554538727,0.17291727662086487,-0.02246394194662571,0.027943715453147888,0.028541116043925285,-0.998949408531189
129067.029,-0.15745891630649567,-0.09778600186109543,0.5032708048820496,-0.2085578888654709,0.2878647744655609,1.1547014713287354,-241.9219512939453,13.711395263671875,-129.84030151367188,23,-28.0,-14.0,143,0.06922701001167297,0.13678349554538727,0.17291727662086487,-0.02246394194662571,0.027943715453147888,0.028541116043925285,-0.998949408531189
129069.001,-0.15745891630649567,-0.09778600186109543,0.5032708048820496,0.016480034217238426,0.6770247220993042,1.1765012741088867,-209.1201171875,26.253026962280273,-227.60394287109375,23,-28.0,-14.0,143,0.06875082105398178,0.1364191323518753,0.17590369284152985,-0.010860373266041279,0.025222724303603172,0.03187109902501106,-0.9991146922111511
129070.99,-0.15814641118049622,-0.09601712971925735,0.5158261060714722,0.5113097429275513,1.344018578529358,1.0373873710632324,-176.10733032226562,29.63158416748047,-190.697509765625,23,-21.0,1.0,141,0.06875082105398178,0.1364191323518753,0.17590369284152985,-0.010860373266041279,0.025222724303603172,0.03187109902501106,-0.9991146922111511
129073.086,-0.1522371619939804,-0.044554345309734344,0.49455538392066956,0.7118890881538391,1.8683557510375977,0.861020028591156,-149.6002197265625,25.184558868408203,11.366847038269043,29,-21.0,1.0,141,0.06875082105398178,0.1364191323518753,0.17590369284152985,-0.010860373266041279,0.025222724303603172,0.03187109902501106,-0.9991146922111511
129074.943,-0.1522371619939804,-0.044554345309734344,0.49455538392066956,0.32718825340270996,1.67851984500885,1.052181363105774,-118.96742248535156,23.727378845214844,204.77806091308594,29,-21.0,1.0,141,0.06832082569599152,0.13641424477100372,0.17879177629947662,-0.005810373928397894,0.02207169309258461,0.044110607355833054,-0.9987660050392151
129076.932,-0.15304253995418549,-0.04414275661110878,0.5047178864479065,-0.22733277082443237,1.1566309928894043,1.5408220291137695,-92.9537124633789,25.759170532226562,157.7866973876953,29,-21.0,1.0,141,0.06832082569599152,0.13641424477100372,0.17879177629947662,-0.005810373928397894,0.02207169309258461,0.044110607355833054,-0.9987660050392151
129078.916,-0.15304253995418549,-0.04414275661110878,0.5047178864479065,-0.3962063193321228,0.8721621036529541,1.768863320350647,-72.48519897460938,17.50233268737793,-69.73464965820312,29,-21.0,1.0,141,0.0684739500284195,0.13608986139297485,0.18122872710227966,0.0014445414999499917,0.02080426551401615,0.05044310912489891,-0.9985092282295227
129080.888,-0.1538221538066864,-0.043662577867507935,0.5148477554321289,-0.2521161437034607,0.6471145749092102,1.355958104133606,-38.8677864074707,3.0057027339935303,-142.77371215820312,29,-21.0,1.0,141,0.0684739500284195,0.13608986139297485,0.18122872710227966,0.0014445414999499917,0.02080426551401615,0.05044310912489891,-0.9985092282295227
129083.224,-0.15865443646907806,-0.04571310803294182,0.543370246887207,-0.09751151502132416,0.15143626928329468,0.5906634330749512,1.4904659986495972,-0.096845842897892,12.576481819152832,29,-21.0,1.0,141,0.0684739500284195,0.13608986139297485,0.18122872710227966,0.0014445414999499917,0.02080426551401615,0.05044310912489891,-0.9985092282295227
129084.849,-0.15865443646907806,-0.04571310803294182,0.543370246887207,-0.04403947666287422,-0.1259557604789734,0.004623862449079752,12.760791778564453,-4.65109395980835,71.40211486816406,29,-21.0,1.0,141,0.06758946180343628,0.13681639730930328,0.18431437015533447,0.001619465067051351,0.025589963421225548,0.04380744695663452,-0.9987109303474426
129086.833,-0.15946345031261444,-0.045220617204904556,0.5544403195381165,-0.02631157636642456,0.504468560218811,-0.35377782583236694,-12.676608085632324,-26.017534255981445,-63.527767181396484,29,-21.0,1.0,141,0.06758946180343628,0.13681639730930328,0.18431437015533447,0.001619465067051351,0.025589963421225548,0.04380744695663452,-0.9987109303474426
129088.818,-0.15946345031261444,-0.045220617204904556,0.5544403195381165,0.05533182993531227,1.5962179899215698,-0.48250776529312134,-26.91902732849121,-33.6302604675293,-99.89019775390625,29,-21.0,1.0,141,0.06758946180343628,0.13681639730930328,0.18431437015533447,0.001619465067051351,0.025589963421225548,0.04380744695663452,-0.9987109303474426
129090.793,-0.15946345031261444,-0.045220617204904556,0.5544403195381165,0.014359381049871445,1.990904688835144,-0.06836774945259094,-3.1722850799560547,-7.8708295822143555,120.71363067626953,35,4.0,0.0,141,0.06765295565128326,0.1384454071521759,0.1865069717168808,0.000631550676189363,0.022448290139436722,0.03230314701795578,-0.9992258548736572
129092.902,-0.1432742178440094,-0.03498130664229393,0.401481032371521,-0.25119292736053467,1.3690091371536255,0.9315341114997864,21.417469024658203,18.215620040893555,311.53265380859375,35,4.0,0.0,141,0.06765295565128326,0.1384454071521759,0.1865069717168808,0.000631550676189363,0.022448290139436722,0.03230314701795578,-0.9992258548736572
129094.761,-0.1432742178440094,-0.03498130664229393,0.401481032371521,-0.28059086203575134,0.6813842058181763,1.7500394582748413,11.47098159790039,14.568544387817383,206.297119140625,35,4.0,0.0,141,0.06765295565128326,0.1384454071521759,0.1865069717168808,0.000631550676189363,0.022448290139436722,0.03230314701795578,-0.9992258548736572
129096.737,-0.1432742178440094,-0.03498130664229393,0.401481032371521,-0.0677376464009285,0.36601048707962036,2.0053529739379883,-9.509774208068848,-7.0587158203125,-33.65400314331055,35,4.0,0.0,141,0.06741219758987427,0.13897238671779633,0.18879029154777527,0.0028096046298742294,0.024608934298157692,0.029914412647485733,-0.9992455840110779
129098.728,-0.14400874078273773,-0.03455318138003349,0.4120946228504181,-0.06673359125852585,0.029559463262557983,2.042780876159668,-12.324424743652344,-16.025676727294922,-112.95694732666016,35,4.0,0.0,141,0.06741219758987427,0.13897238671779633,0.18879029154777527,0.0028096046298742294,0.024608934298157692,0.029914412647485733,-0.9992455840110779
129100.7,-0.14400874078273773,-0.03455318138003349,0.4120946228504181,-0.34159228205680847,-0.42891040444374084,2.0821306705474854,-8.347654342651367,-8.925898551940918,-69.54559326171875,35,4.0,0.0,141,0.06710939109325409,0.13993783295154572,0.19219115376472473,-0.0001448488765163347,0.02260422147810459,0.0298094991594553,-0.999299943447113
129103.036,-0.15230275690555573,-0.032884687185287476,0.5030971169471741,-0.5163539052009583,-0.5064951777458191,2.056101083755493,-19.915315628051758,4.182545185089111,-111.93478393554688,35,4.0,0.0,141,0.06710939109325409,0.13993783295154572,0.19219115376472473,-0.0001448488765163347,0.02260422147810459,0.0298094991594553,-0.999299943447113
129104.662,-0.15230275690555573,-0.032884687185287476,0.5030971169471741,-0.3187044858932495,0.05416122451424599,1.8783514499664307,-49.55193328857422,18.44829559326172,-211.75796508789062,35,4.0,0.0,141,0.06710939109325409,0.13993783295154572,0.19219115376472473,-0.0001448488765163347,0.02260422147810459,0.0298094991594553,-0.999299943447113
129106.643,-0.15230275690555573,-0.032884687185287476,0.5030971169471741,0.03248349204659462,0.695609986782074,1.5000747442245483,-70.20698547363281,20.806177139282227,-184.76039123535156,35,4.0,0.0,141,0.06669434905052185,0.14084658026695251,0.19519875943660736,0.00039437678060494363,0.023721402511000633,0.03698276728391647,-0.9990342855453491
129108.631,-0.15300500392913818,-0.032269928604364395,0.5148160457611084,0.1994321495294571,0.4556637406349182,0.9431513547897339,-46.54094696044922,12.43986988067627,-8.90356159210205,35,4.0,0.0,141,0.06669434905052185,0.14084658026695251,0.19519875943660736,0.00039437678060494363,0.023721402511000633,0.03698276728391647,-0.9990342855453491
129110.606,-0.12320271879434586,-0.02126404456794262,0.5309115648269653,0.08571521192789078,-0.8191888332366943,0.4215404689311981,12.31873893737793,12.23270320892334,150.9443359375,41,9.0,-3.0,143,0.06669434905052185,0.14084658026695251,0.19519875943660736,0.00039437678060494363,0.023721402511000633,0.03698276728391647,-0.9990342855453491
129112.712,-0.11504190415143967,-0.020018815994262695,0.4608258306980133,-0.17024986445903778,-2.3794896602630615,0.12403079122304916,65.56998443603516,22.87984848022461,147.67454528808594,41,9.0,-3.0,143,0.06568264216184616,0.1410435438156128,0.1982690691947937,0.005093290004879236,0.02273787558078766,0.051906563341617584,-0.9983800649642944
129114.568,-0.12086285650730133,-0.018510159105062485,0.5075504779815674,-0.3542676270008087,-3.2981622219085693,0.0722937062382698,86.38192749023438,24.035104751586914,-37.596717834472656,41,9.0,-3.0,143,0.06568264216184616,0.1410435438156128,0.1982690691947937,0.005093290004879236,0.02273787558078766,0.051906563341617584,-0.9983800649642944
129116.562,-0.12086285650730133,-0.018510159105062485,0.5075504779815674,-0.2811262011528015,-3.29472279548645,0.3758200407028198,78.8363037109375,9.365856170654297,-304.1888732910156,41,9.0,-3.0,143,0.06568264216184616,0.1410435438156128,0.1982690691947937,0.005093290004879236,0.02273787558078766,0.051906563341617584,-0.9983800649642944
129118.535,-0.12086285650730133,-0.018510159105062485,0.5075504779815674,-0.06060495600104332,-2.6482574939727783,0.9881324172019958,70.97284698486328,1.2196999788284302,-413.0255432128906,41,9.0,-3.0,143,0.0650566816329956,0.14145420491695404,0.20091170072555542,-0.00028602092061191797,0.021521206945180893,0.060417287051677704,-0.9979411363601685
129120.512,-0.12175022065639496,-0.018143344670534134,0.518591046333313,-0.006579272449016571,-1.888031005859375,1.4926389455795288,85.92639923095703,9.033787727355957,-233.12608337402344,41,9.0,-3.0,143,0.0650566816329956,0.14145420491695404,0.20091170072555542,-0.00028602092061191797,0.021521206945180893,0.060417287051677704,-0.9979411363601685
129122.855,-0.1212424784898758,-0.01576841063797474,0.47278571128845215,-0.09598993510007858,-1.3973827362060547,1.653435468673706,105.42971801757812,19.796857833862305,32.702518463134766,41,9.0,-3.0,143,0.06408610939979553,0.14173585176467896,0.2042473703622818,-0.008090900257229805,0.02240578830242157,0.055402640253305435,-0.9981799125671387
129124.48,-0.12214493006467819,-0.015408506616950035,0.48489728569984436,-0.08535787463188171,-1.110220193862915,1.497414231300354,78.4233169555664,23.212202072143555,154.71304321289062,41,9.0,-3.0,143,0.06408610939979553,0.14173585176467896,0.2042473703622818,-0.008090900257229805,0.02240578830242157,0.055402640253305435,-0.9981799125671387
129126.456,-0.12214493006467819,-0.015408506616950035,0.48489728569984436,0.05635148659348488,-0.9559766054153442,1.1686643362045288,0.93306565284729,24.16790199279785,116.14047241210938,41,9.0,-3.0,143,0.06408610939979553,0.14173585176467896,0.2042473703622818,-0.008090900257229805,0.02240578830242157,0.055402640253305435,-0.9981799125671387
129128.443,-0.12214493006467819,-0.015408506616950035,0.48489728569984436,0.1545412838459015,-0.7756360173225403,0.736598014831543,-83.46988677978516,23.122974395751953,40.144874572753906,41,9.0,-3.0,143,0.06395948678255081,0.1404629349708557,0.20674264430999756,-0.007509091403335333,0.02130092866718769,0.045464254915714264,-0.9987106323242188
129130.417,-0.12214493006467819,-0.015408506616950035,0.48489728569984436,0.1590537577867508,-0.2987018823623657,0.3259226381778717,-137.99411010742188,15.970641136169434,-23.054227828979492,48,-3.0,-1.0,142,0.06395948678255081,0.1404629349708557,0.20674264430999756,-0.007509091403335333,0.02130092866718769,0.045464254915714264,-0.9987106323242188
129132.517,-0.10004059225320816,0.005714136175811291,0.451876163482666,0.13736256957054138,0.4321586489677429,0.0830446258187294,-155.0289306640625,7.835628032684326,-55.64912414550781,48,-3.0,-1.0,142,0.06395948678255081,0.1404629349708557,0.20674264430999756,-0.007509091403335333,0.02130092866718769,0.045464254915714264,-0.9987106323242188
129134.379,-0.10004059225320816,0.005714136175811291,0.451876163482666,0.06298841536045074,0.9424961805343628,0.07533936202526093,-146.1781005859375,6.604746341705322,21.898508071899414,48,-3.0,-1.0,142,0.0633883848786354,0.13970933854579926,0.21021346747875214,-0.0003266789426561445,0.01988227665424347,0.03668900206685066,-0.9991289377212524
129136.362,-0.10105090588331223,0.0056288656778633595,0.4633559286594391,0.012115241959691048,0.8857983946800232,0.20533469319343567,-131.7970428466797,16.275205612182617,179.59243774414062,48,-3.0,-1.0,142,0.0633883848786354,0.13970933854579926,0.21021346747875214,-0.0003266789426561445,0.01988227665424347,0.03668900206685066,-0.9991289377212524
129138.353,-0.10105090588331223,0.0056288656778633595,0.4633559286594391,-0.033659592270851135,0.4887883961200714,0.41193684935569763,-129.99842834472656,29.07126235961914,212.86856079101562,48,-3.0,-1.0,142,0.0633883848786354,0.13970933854579926,0.21021346747875214,-0.0003266789426561445,0.01988227665424347,0.03668900206685066,-0.9991289377212524
129140.328,-0.10105090588331223,0.0056288656778633595,0.4633559286594391,-0.02970101125538349,0.28008949756622314,0.650431752204895,-141.33067321777344,29.02237319946289,-0.23551425337791443,48,-3.0,-1.0,142,0.06200522556900978,0.13901302218437195,0.2121913880109787,0.009477217681705952,0.018212370574474335,0.04290816932916641,-0.9988681077957153
129142.664,-0.1007554680109024,0.0022399267181754112,0.40114980936050415,0.08029057085514069,0.6044731140136719,0.860736072063446,-154.60720825195312,15.26381778717041,-269.2590026855469,48,-3.0,-1.0,142,0.06200522556900978,0.13901302218437195,0.2121913880109787,0.009477217681705952,0.018212370574474335,0.04290816932916641,-0.9988681077957153
129144.297,-0.1007554680109024,0.0022399267181754112,0.40114980936050415,0.17451904714107513,1.2559258937835693,0.989833652973175,-155.7714080810547,-0.09877149760723114,-306.9425964355469,48,-3.0,-1.0,142,0.06200522556900978,0.13901302218437195,0.2121913880109787,0.009477217681705952,0.018212370574474335,0.04290816932916641,-0.9988681077957153
129146.278,-0.1007554680109024,0.0022399267181754112,0.40114980936050415,0.2080860286951065,1.7578121423721313,1.2274401187896729,-139.1070556640625,2.506690740585327,-118.21320343017578,48,-3.0,-1.0,142,0.060697585344314575,0.13909801840782166,0.21404820680618286,0.015408726409077644,0.01587427407503128,0.05331645533442497,-0.9983325600624084
129148.252,-0.10183119773864746,0.002112490590661764,0.41354069113731384,0.1412302702665329,1.8752808570861816,1.6383541822433472,-112.81944274902344,23.441221237182617,54.690582275390625,48,-10.0,-9.0,141,0.060697585344314575,0.13909801840782166,0.21404820680618286,0.015408726409077644,0.01587427407503128,0.05331645533442497,-0.9983325600624084
129150.239,-0.09078754484653473,0.02639005146920681,0.34524545073509216,-0.02369297668337822,1.8136316537857056,1.9098806381225586,-90.68933868408203,29.828901290893555,69.53437042236328,50,-10.0,-9.0,141,0.060697585344314575,0.13909801840782166,0.21404820680618286,0.015408726409077644,0.01587427407503128,0.05331645533442497,-0.9983325600624084
129152.328,-0.09078754484653473,0.02639005146920681,0.34524545073509216,0.023855647072196007,1.6379650831222534,1.7559082508087158,-64.77236938476562,10.096153259277344,9.585678100585938,50,-10.0,-9.0,141,0.06061016023159027,0.13884150981903076,0.21726912260055542,0.019299132749438286,0.013889659196138382,0.06630843877792358,-0.9975159168243408
129154.192,-0.09431149065494537,0.028571639209985733,0.3822053074836731,0.2129589319229126,1.0767487287521362,1.2596579790115356,-20.606443405151367,-0.9099934697151184,71.66507720947266,50,-10.0,-9.0,141,0.06061016023159027,0.13884150981903076,0.21726912260055542,0.019299132749438286,0.013889659196138382,0.06630843877792358,-0.9975159168243408
129156.174,-0.09431149065494537,0.028571639209985733,0.3822053074836731,0.13227850198745728,0.2542124092578888,0.683766782283783,17.735218048095703,11.109347343444824,202.0841522216797,50,-10.0,-9.0,141,0.059862684458494186,0.13921716809272766,0.21964630484580994,0.024776117876172066,0.014986969530582428,0.06591160595417023,-0.9974052906036377
129158.156,-0.09542099386453629,0.028050394728779793,0.39412394165992737,-0.1300235539674759,-0.14440284669399261,0.12268438190221786,21.77723503112793,11.481011390686035,143.93955993652344,50,-10.0,-9.0,141,0.059862684458494186,0.13921716809272766,0.21964630484580994,0.024776117876172066,0.014986969530582428,0.06591160595417023,-0.9974052906036377
129160.145,-0.09542099386453629,0.028050394728779793,0.39412394165992737,-0.03683238849043846,0.35766541957855225,-0.37531840801239014,-1.3753358125686646,-4.987443447113037,-81.7989730834961,50,-10.0,-9.0,141,0.059862684458494186,0.13921716809272766,0.21964630484580994,0.024776117876172066,0.014986969530582428,0.06591160595417023,-0.9974052906036377
129162.461,-0.09542099386453629,0.028050394728779793,0.39412394165992737,0.27250489592552185,1.1524814367294312,-0.5061078667640686,-14.499499320983887,-6.972431182861328,-158.8291778564453,50,-10.0,-9.0,141,0.05960898473858833,0.14076192677021027,0.2219586968421936,0.02117573283612728,0.014237992465496063,0.05054546147584915,-0.9983957409858704
129164.098,-0.09643493592739105,0.031344618648290634,0.3872966766357422,0.3457278311252594,1.6361432075500488,-0.09780991077423096,-3.337310314178467,7.068406105041504,59.703125,50,-10.0,-9.0,141,0.05960898473858833,0.14076192677021027,0.2219586968421936,0.02117573283612728,0.014237992465496063,0.05054546147584915,-0.9983957409858704
129166.09,-0.09643493592739105,0.031344618648290634,0.3872966766357422,0.09178537875413895,1.7459490299224854,0.6415769457817078,2.9129726886749268,16.619651794433594,317.3357238769531,50,-10.0,-9.0,141,0.05960898473858833,0.14076192677021027,0.2219586968421936,0.02117573283612728,0.014237992465496063,0.05054546147584915,-0.9983957409858704
129168.079,-0.09643493592739105,0.031344618648290634,0.3872966766357422,-0.1115196943283081,1.4511419534683228,1.2793824672698975,-5.764814853668213,15.762458801269531,356.75482177734375,50,-10.0,-9.0,141,0.059291087090969086,0.14217768609523773,0.2241813838481903,0.02219129353761673,0.015389468520879745,0.03596974164247513,-0.9989879131317139
129170.044,-0.08755701780319214,0.013316539116203785,0.33451351523399353,-0.1130518913269043,0.9296466112136841,1.74122953414917,-16.862407684326172,11.354121208190918,251.84059143066406,59,-10.0,-32.0,140,0.059291087090969086,0.14217768609523773,0.2241813838481903,0.02219129353761673,0.015389468520879745,0.03596974164247513,-0.9989879131317139
129172.154,-0.08650659769773483,0.015637075528502464,0.2841120660305023,-0.10420262068510056,0.47035491466522217,1.9232269525527954,-21.699125289916992,7.044503211975098,117.79721069335938,59,-10.0,-32.0,140,0.059291087090969086,0.14217768609523773,0.2241813838481903,0.02219129353761673,0.015389468520879745,0.03596974164247513,-0.9989879131317139
129174.012,-0.08650659769773483,0.015637075528502464,0.2841120660305023,-0.06843070685863495,0.17971956729888916,1.7680402994155884,-12.410443305969238,7.289689064025879,-20.08225440979004,59,-10.0,-32.0,140,0.058983415365219116,0.14330899715423584,0.22692257165908813,0.025041285902261734,0.013652332127094269,0.025681426748633385,-0.9992632269859314
129175.985,-0.08756135404109955,0.01572149246931076,0.29668140411376953,0.09329057484865189,-0.14944575726985931,1.5175142288208008,17.43644142150879,19.65030860900879,-72.12434387207031,59,-10.0,-32.0,140,0.058983415365219116,0.14330899715423584,0.22692257165908813,0.025041285902261734,0.013652332127094269,0.025681426748633385,-0.9992632269859314
129177.967,-0.08756135404109955,0.01572149246931076,0.29668140411376953,0.09638848900794983,-0.520902693271637,1.3329267501831055,45.583457946777344,24.88186264038086,-2.0147669315338135,59,-10.0,-32.0,140,0.05872631072998047,0.14491622149944305,0.2296922504901886,0.023927664384245872,0.013560627587139606,0.02768067643046379,-0.9992384314537048
129179.948,-0.0886029601097107,0.015913013368844986,0.30917245149612427,-0.13268576562404633,-0.8891894817352295,1.2256308794021606,47.41395950317383,10.5904541015625,9.313899993896484,59,-10.0,-32.0,140,0.05872631072998047,0.14491622149944305,0.2296922504901886,0.023927664384245872,0.013560627587139606,0.02768067643046379,-0.9992384314537048
129182.284,-0.09081191569566727,0.024154800921678543,0.36539456248283386,-0.2854883670806885,-1.1874146461486816,1.2488899230957031,26.449613571166992,7.2130255699157715,-141.76242065429688,59,-10.0,-32.0,140,0.05872631072998047,0.14491622149944305,0.2296922504901886,0.023927664384245872,0.013560627587139606,0.02768067643046379,-0.9992384314537048
129183.91,-0.09081191569566727,0.024154800921678543,0.36539456248283386,-0.1682886779308319,-1.0485966205596924,1.3690838813781738,-3.636906623840332,28.176721572875977,-302.0315856933594,59,-10.0,-32.0,140,0.058595262467861176,0.14619289338588715,0.23167526721954346,0.019907355308532715,0.01032109186053276,0.036686673760414124,-0.9990752935409546
129185.898,-0.09183565527200699,0.024458767846226692,0.3791712522506714,0.15599936246871948,-0.43001076579093933,1.2551687955856323,-22.485448837280273,45.71500015258789,-282.90380859375,59,-10.0,-32.0,140,0.058595262467861176,0.14619289338588715,0.23167526721954346,0.019907355308532715,0.01032109186053276,0.036686673760414124,-0.9990752935409546
129187.894,-0.09183565527200699,0.024458767846226692,0.3791712522506714,0.4389165937900543,-0.10377256572246552,0.9586192965507507,-0.2978143095970154,43.1822395324707,-48.370643615722656,59,-10.0,-32.0,140,0.058595262467861176,0.14619289338588715,0.23167526721954346,0.019907355308532715,0.01032109186053276,0.036686673760414124,-0.9990752935409546
129189.857,-0.09183565527200699,0.024458767846226692,0.3791712522506714,0.39560550451278687,-0.7269940972328186,0.7677311897277832,48.0541877746582,36.926124572753906,234.0823211669922,59,-10.0,-17.0,139,0.05776391178369522,0.14695872366428375,0.23499833047389984,0.02006363868713379,0.009492363780736923,0.046071089804172516,-0.9986916184425354
129191.953,-0.0753980427980423,0.014918538741767406,0.3450634479522705,0.08979445695877075,-1.9425053596496582,0.8488155007362366,77.718017578125,38.78419494628906,293.2056884765625,67,-10.0,-17.0,139,0.05776391178369522,0.14695872366428375,0.23499833047389984,0.02006363868713379,0.009492363780736923,0.046071089804172516,-0.9986916184425354
129193.825,-0.0753980427980423,0.014918538741767406,0.3450634479522705,-0.082098089158535,-2.91300368309021,1.1021132469177246,78.83675384521484,36.9726448059082,67.7704086303711,67,-10.0,-17.0,139,0.05776391178369522,0.14695872366428375,0.23499833047389984,0.02006363868713379,0.009492363780736923,0.046071089804172516,-0.9986916184425354
129195.797,-0.0753980427980423,0.014918538741767406,0.3450634479522705,-0.1175864189863205,-3.273583173751831,1.2542426586151123,70.12223815917969,28.2325439453125,-159.9916534423828,67,-10.0,-17.0,139,0.05600839480757713,0.1469067484140396,0.23581457138061523,0.019913356751203537,0.009497123770415783,0.05469600856304169,-0.9982593059539795
129197.779,-0.07655040919780731,0.015546943992376328,0.3579317331314087,-0.12172718346118927,-3.0034313201904297,1.1643455028533936,56.36882781982422,19.56574249267578,-165.9877166748047,67,-10.0,-17.0,139,0.05600839480757713,0.1469067484140396,0.23581457138061523,0.019913356751203537,0.009497123770415783,0.05469600856304169,-0.9982593059539795
129199.76,-0.07655040919780731,0.015546943992376328,0.3579317331314087,0.043020326644182205,-2.150538682937622,0.9142005443572998,30.85840606689453,17.576539993286133,-77.42982482910156,67,-10.0,-17.0,139,0.057923950254917145,0.14425598084926605,0.2405150681734085,-0.0007008560933172703,0.0013332127127796412,0.0460689440369606,-0.99893718957901
129202.086,-0.07763483375310898,0.020986810326576233,0.3749951720237732,0.23568613827228546,-1.0816930532455444,0.6922318339347839,-4.847787380218506,20.6676082611084,-3.6329798698425293,67,-10.0,-17.0,139,0.057923950254917145,0.14425598084926605,0.2405150681734085,-0.0007008560933172703,0.0013332127127796412,0.0460689440369606,-0.99893718957901
129203.722,-0.07763483375310898,0.020986810326576233,0.3749951720237732,0.16274364292621613,-0.31354087591171265,0.6274997591972351,-43.43290710449219,28.430374145507812,121.07148742675781,67,-10.0,-17.0,139,0.057923950254917145,0.14425598084926605,0.2405150681734085,-0.0007008560933172703,0.0013332127127796412,0.0460689440369606,-0.99893718957901
129205.703,-0.07763483375310898,0.020986810326576233,0.3749951720237732,-0.03491805121302605,0.027195287868380547,0.6584571003913879,-90.40000915527344,30.247295379638672,227.96701049804688,67,-10.0,-17.0,139,0.056266650557518005,0.14690479636192322,0.2423616498708725,0.01314345933496952,0.007116637192666531,0.03008943982422352,-0.999435544013977
129207.692,-0.07876204699277878,0.021623823791742325,0.3892580568790436,-0.09958589822053909,0.1899660974740982,0.726192057132721,-141.2044677734375,18.763568878173828,205.76771545410156,67,-10.0,-17.0,139,0.056266650557518005,0.14690479636192322,0.2423616498708725,0.01314345933496952,0.007116637192666531,0.03008943982422352,-0.999435544013977
129209.671,-0.08091254532337189,0.05278407037258148,0.40194129943847656,-0.07493465393781662,0.2543412446975708,0.7818732261657715,-170.1263885498047,9.043548583984375,140.04489135742188,67,-13.0,0.0,138,0.056266650557518005,0.14690479636192322,0.2423616498708725,0.01314345933496952,0.007116637192666531,0.03008943982422352,-0.999435544013977
129211.764,-0.08091254532337189,0.05278407037258148,0.40194129943847656,-0.11836104094982147,0.07114914804697037,0.816315770149231,-161.5608673095703,14.935018539428711,132.3217010498047,75,-13.0,0.0,138,0.05599835515022278,0.14554478228092194,0.2454734444618225,0.02122834511101246,0.0024135822895914316,0.01822158508002758,-0.9996057152748108
129213.63,-0.07437804341316223,0.05434036999940872,0.30807679891586304,-0.19888360798358917,-0.21196483075618744,0.860196590423584,-130.84982299804688,26.876232147216797,90.43548583984375,75,-13.0,0.0,138,0.05599835515022278,0.14554478228092194,0.2454734444618225,0.02122834511101246,0.0024135822895914316,0.01822158508002758,-0.9996057152748108
129215.61,-0.07437804341316223,0.05434036999940872,0.30807679891586304,-0.22259849309921265,-0.16127163171768188,0.8940509557723999,-112.11361694335938,21.45100212097168,-86.62323760986328,75,-13.0,0.0,138,0.05414871498942375,0.145768404006958,0.24743258953094482,0.03182151913642883,0.003590545617043972,0.024268444627523422,-0.999192476272583
129217.591,-0.07543184608221054,0.054430317133665085,0.320867657661438,-0.20405910909175873,0.34507641196250916,0.8776852488517761,-110.20236206054688,5.786616802215576,-291.3481140136719,75,-13.0,0.0,138,0.05414871498942375,0.145768404006958,0.24743258953094482,0.03182151913642883,0.003590545617043972,0.024268444627523422,-0.999192476272583
129219.581,-0.07543184608221054,0.054430317133665085,0.320867657661438,-0.09430474042892456,1.1719032526016235,0.8403583765029907,-104.72017669677734,12.117419242858887,-326.8375549316406,75,-13.0,0.0,138,0.05414871498942375,0.145768404006958,0.24743258953094482,0.03182151913642883,0.003590545617043972,0.024268444627523422,-0.999192476272583
129221.908,-0.0740954652428627,0.05691320076584816,0.30570393800735474,0.07752891629934311,1.9114468097686768,0.9545451402664185,-83.7179946899414,29.7564697265625,-194.3400421142578,75,-13.0,0.0,138,0.053963057696819305,0.14584645628929138,0.2494409680366516,0.0340912826359272,0.00171540561132133,0.04130844399333,-0.9985631704330444
129223.535,-0.07513272017240524,0.05695057287812233,0.319886177778244,0.2505750060081482,1.9814211130142212,1.1866341829299927,-46.349971771240234,32.160667419433594,-47.11075210571289,75,-13.0,0.0,138,0.053963057696819305,0.14584645628929138,0.2494409680366516,0.0340912826359272,0.00171540561132133,0.04130844399333,-0.9985631704330444
129225.516,-0.07513272017240524,0.05695057287812233,0.319886177778244,0.2887379825115204,1.3305742740631104,1.559354543685913,-14.52760124206543,26.50655746459961,26.45163917541504,75,-13.0,0.0,138,0.053963057696819305,0.14584645628929138,0.2494409680366516,0.0340912826359272,0.00171540561132133,0.04130844399333,-0.9985631704330444
129227.502,-0.07513272017240524,0.05695057287812233,0.319886177778244,0.08220959454774857,0.5631982088088989,2.049954652786255,-8.951138496398926,22.6124324798584,9.263340950012207,75,-13.0,0.0,138,0.05360566824674606,0.14571502804756165,0.25243353843688965,0.03822210058569908,0.0012151137925684452,0.061934396624565125,-0.9973474144935608
129229.481,-0.07615385204553604,0.05701448395848274,0.3339558243751526,-0.28425320982933044,0.3141900300979614,2.0799262523651123,-31.272136688232422,10.06180191040039,-83.325927734375,75,-8.0,9.0,135,0.05360566824674606,0.14571502804756165,0.25243353843688965,0.03822210058569908,0.0012151137925684452,0.061934396624565125,-0.9973474144935608
129231.577,-0.06490673124790192,0.0750974491238594,0.3203408718109131,-0.42905446887016296,0.8048692941665649,1.4133833646774292,-56.45512771606445,-6.1531758308410645,-191.26734924316406,86,-8.0,9.0,135,0.05360566824674606,0.14571502804756165,0.25243353843688965,0.03822210058569908,0.0012151137925684452,0.061934396624565125,-0.9973474144935608
129233.439,-0.06490673124790192,0.0750974491238594,0.3203408718109131,-0.23588496446609497,1.7715531587600708,0.5162597894668579,-64.35420989990234,-3.4441442489624023,-177.70919799804688,86,-8.0,9.0,135,0.05267015099525452,0.14675454795360565,0.25412607192993164,0.0349147766828537,0.0008961468120105565,0.060322355479002,-0.9975677728652954
129235.421,-0.06587757170200348,0.07516201585531235,0.33323052525520325,0.10170193761587143,2.5552892684936523,-0.16646476089954376,-47.042022705078125,9.398199081420898,-16.867891311645508,86,-8.0,9.0,135,0.05267015099525452,0.14675454795360565,0.25412607192993164,0.0349147766828537,0.0008961468120105565,0.060322355479002,-0.9975677728652954
129237.403,-0.06587757170200348,0.07516201585531235,0.33323052525520325,0.39530694484710693,2.6653988361358643,-0.44154641032218933,-17.825422286987305,11.100091934204102,153.968994140625,86,-8.0,9.0,135,0.05267015099525452,0.14675454795360565,0.25412607192993164,0.0349147766828537,0.0008961468120105565,0.060322355479002,-0.9975677728652954
129239.382,-0.06587757170200348,0.07516201585531235,0.33323052525520325,0.4980698227882385,2.019571304321289,-0.24355323612689972,1.4756739139556885,7.226016521453857,236.48464965820312,86,-8.0,9.0,135,0.05214659497141838,0.14784884452819824,0.2561872899532318,0.04081333056092262,0.0021894790697842836,0.045906420797109604,-0.9981093406677246
129241.71,-0.06434189528226852,0.07626601308584213,0.2784046530723572,0.2669734060764313,0.8539324998855591,0.3199061453342438,15.326794624328613,2.3392720222473145,220.34527587890625,86,-8.0,9.0,135,0.05214659497141838,0.14784884452819824,0.2561872899532318,0.04081333056092262,0.0021894790697842836,0.045906420797109604,-0.9981093406677246
129243.353,-0.06434189528226852,0.07626601308584213,0.2784046530723572,-0.1401084065437317,-0.1269037425518036,0.944058358669281,33.72438430786133,-1.0811548233032227,109.22077941894531,86,-8.0,9.0,135,0.05214659497141838,0.14784884452819824,0.2561872899532318,0.04081333056092262,0.0021894790697842836,0.045906420797109604,-0.9981093406677246
129245.326,-0.06434189528226852,0.07626601308584213,0.2784046530723572,-0.43803706765174866,-0.26525261998176575,1.3881510496139526,52.62855911254883,3.393085479736328,-66.4569320678711,86,-8.0,9.0,135,0.052196528762578964,0.14914432168006897,0.25848475098609924,0.04081546515226364,-0.0002652895636856556,0.04344181343913078,-0.9982218146324158
129247.313,-0.06527189165353775,0.07656082510948181,0.29262205958366394,-0.37055501341819763,0.19681334495544434,1.557094931602478,73.86016082763672,14.829915046691895,-182.36143493652344,86,-8.0,9.0,135,0.052196528762578964,0.14914432168006897,0.25848475098609924,0.04081546515226364,-0.0002652895636856556,0.04344181343913078,-0.9982218146324158
129249.306,-0.06527189165353775,0.07656082510948181,0.29262205958366394,0.0867055207490921,0.66920006275177,1.5105928182601929,104.2311019897461,22.07074737548828,-127.74964904785156,86,-8.0,9.0,135,0.052196528762578964,0.14914432168006897,0.25848475098609924,0.04081546515226364,-0.0002652895636856556,0.04344181343913078,-0.9982218146324158
129251.394,-0.06527189165353775,0.07656082510948181,0.29262205958366394,0.3748844563961029,0.8137511610984802,1.3427714109420776,124.92908477783203,13.102377891540527,25.69044303894043,86,-11.0,-3.0,134,0.05146897956728935,0.15171507000923157,0.26147955656051636,0.03319833427667618,0.003044749377295375,0.0441536121070385,-0.9984684586524963
129253.252,-0.06082453578710556,0.06155133992433548,0.26644596457481384,0.11822853982448578,0.36916235089302063,1.1659600734710693,122.27579498291016,-5.348477840423584,95.15345001220703,94,-11.0,-3.0,134,0.05146897956728935,0.15171507000923157,0.26147955656051636,0.03319833427667618,0.003044749377295375,0.0441536121070385,-0.9984684586524963
129255.244,-0.06082453578710556,0.06155133992433548,0.26644596457481384,-0.12397956848144531,-0.5734071135520935,1.049651861190796,108.90323638916016,-0.5222159624099731,41.416202545166016,94,-11.0,-3.0,134,0.05146897956728935,0.15171507000923157,0.26147955656051636,0.03319833427667618,0.003044749377295375,0.0441536121070385,-0.9984684586524963
129257.223,-0.061592284590005875,0.06253315508365631,0.2792629897594452,-0.10484664142131805,-1.4780703783035278,1.0077340602874756,93.77938842773438,26.838327407836914,-33.408077239990234,94,-11.0,-3.0,134,0.052006617188453674,0.1531069576740265,0.26338624954223633,0.0292985662817955,-0.0014467226574197412,0.051102787256240845,-0.9982624650001526
129259.196,-0.061592284590005875,0.06253315508365631,0.2792629897594452,0.003139585256576538,-1.8794008493423462,1.055692434310913,77.74003601074219,39.116233825683594,-96.12410736083984,94,-11.0,-3.0,134,0.052006617188453674,0.1531069576740265,0.26338624954223633,0.0292985662817955,-0.0014467226574197412,0.051102787256240845,-0.9982624650001526
129261.534,-0.059484049677848816,0.07149888575077057,0.2924148142337799,0.2053341418504715,-1.71694016456604,1.217549443244934,64.36161041259766,27.408672332763672,-160.12841796875,94,-11.0,-3.0,134,0.052006617188453674,0.1531069576740265,0.26338624954223633,0.0292985662817955,-0.0014467226574197412,0.051102787256240845,-0.9982624650001526
129263.158,-0.059484049677848816,0.07149888575077057,0.2924148142337799,0.32870498299598694,-1.1624091863632202,1.5223716497421265,55.57955551147461,12.190635681152344,-175.05018615722656,94,-11.0,-3.0,134,0.052006617188453674,0.1531069576740265,0.26338624954223633,0.0292985662817955,-0.0014467226574197412,0.051102787256240845,-0.9982624650001526
129265.147,-0.059484049677848816,0.07149888575077057,0.2924148142337799,0.19213911890983582,-0.5099809169769287,1.8189293146133423,55.77926254272461,6.590394496917725,-81.06957244873047,94,-11.0,-3.0,134,0.05166465789079666,0.15480436384677887,0.26560285687446594,0.023986684158444405,-0.00022513435396831483,0.05004782974720001,-0.998458743095398
129267.121,-0.061014577746391296,0.07401107996702194,0.3212502896785736,-0.05034097284078598,-0.44456005096435547,1.723659634590149,79.19147491455078,13.259875297546387,113.25025939941406,94,-11.0,-3.0,134,0.05042058601975441,0.15633797645568848,0.26797327399253845,0.021518955007195473,-0.0018908368656411767,0.04654456675052643,-0.9986826777458191
129269.102,-0.061014577746391296,0.07401107996702194,0.3212502896785736,-0.282012939453125,-1.459577202796936,1.2536283731460571,113.7258529663086,29.419361114501953,306.2804870605469,94,-11.0,-3.0,134,0.05042058601975441,0.15633797645568848,0.26797327399253845,0.021518955007195473,-0.0018908368656411767,0.04654456675052643,-0.9986826777458191
129271.21,-0.05885311961174011,0.08213362842798233,0.3696932792663574,-0.32613006234169006,-2.817767381668091,0.7818782925605774,114.80692291259766,34.86500549316406,258.3938293457031,94,-4.0,-2.0,133,0.05042058601975441,0.15633797645568848,0.26797327399253845,0.021518955007195473,-0.0018908368656411767,0.04654456675052643,-0.9986826777458191
129273.063,-0.04738935828208923,0.0548970103263855,0.3832080662250519,-0.0144956698641181,-3.3276984691619873,0.38765445351600647,61.69609451293945,13.70228385925293,-104.05012512207031,104,-4.0,-2.0,133,0.05036520957946777,0.15637074410915375,0.27062854170799255,0.021948369219899178,-0.0005930585321038961,0.05243155360221863,-0.998383104801178
129275.045,-0.04521488398313522,0.05443843826651573,0.34304627776145935,0.31568774580955505,-2.7437655925750732,0.1207570880651474,-3.166918992996216,-11.2888822555542,-418.7838134765625,104,-4.0,-2.0,133,0.05036520957946777,0.15637074410915375,0.27062854170799255,0.021948369219899178,-0.0005930585321038961,0.05243155360221863,-0.998383104801178
129277.027,-0.04521488398313522,0.05443843826651573,0.34304627776145935,0.2020723521709442,-1.6832010746002197,0.2173306792974472,-31.329648971557617,-15.840374946594238,-348.0189208984375,104,-4.0,-2.0,133,0.04983314871788025,0.15673252940177917,0.27282238006591797,0.010200642980635166,-0.0032179802656173706,0.049566056579351425,-0.9987135529518127
129279.008,-0.045931797474622726,0.05603872984647751,0.3560751676559448,-0.10417928546667099,-0.5761889815330505,0.6447780132293701,-36.82118606567383,-12.135995864868164,-96.5008773803711,104,-4.0,-2.0,133,0.04983314871788025,0.15673252940177917,0.27282238006591797,0.010200642980635166,-0.0032179802656173706,0.049566056579351425,-0.9987135529518127
129281.346,-0.043750736862421036,0.05769506096839905,0.3008986711502075,-0.13718454539775848,0.2758578360080719,1.0511736869812012,-50.93937683105469,-2.7903053760528564,58.704315185546875,104,-4.0,-2.0,133,0.04983314871788025,0.15673252940177917,0.27282238006591797,0.010200642980635166,-0.0032179802656173706,0.049566056579351425,-0.9987135529518127
129282.969,-0.043750736862421036,0.05769506096839905,0.3008986711502075,0.031911928206682205,0.49844926595687866,1.413195252418518,-71.24970245361328,16.9205379486084,184.7687225341797,104,-4.0,-2.0,133,0.04963547736406326,0.15529493987560272,0.27569589018821716,0.00898696668446064,-0.006744544953107834,0.04454469308257103,-0.9989442229270935
