timestamp,stateEstimate.vx,stateEstimate.vy,stateEstimate.vz,acc.x,acc.y,acc.z,gyro.x,gyro.y,gyro.z,range.zrange,mtf02.dpixelX,mtf02.dpixelY,mtf02.flowQual,locSrv.x,locSrv.y,locSrv.z,locSrv.qx,locSrv.qy,locSrv.qz,locSrv.qw
278291.382,-1.9311080905026756e-05,-0.007039038464426994,-7.75509251980111e-05,0.004080569837242365,-0.0229934174567461,1.000259518623352,0.044038936495780945,-0.36046645045280457,-0.14497703313827515,20,0.0,0.0,163,-0.03236647695302963,-0.009475781582295895,0.14888733625411987,0.008821913972496986,-0.011600319296121597,-0.015080751851201057,-0.9997800588607788
278293.365,-1.9311080905026756e-05,-0.007039038464426994,-7.75509251980111e-05,0.004250020254403353,-0.023281794041395187,0.9999068379402161,0.12686918675899506,-0.20007799565792084,-0.09907198697328568,20,0.0,0.0,163,-0.03235284984111786,-0.009477128274738789,0.14884372055530548,0.008766700513660908,-0.011506490409374237,-0.015064448118209839,-0.9997819066047668
278295.431,-2.846121606125962e-05,-0.0072530582547187805,0.012567930854856968,0.00394005561247468,-0.023243414238095284,0.9998469948768616,0.22425003349781036,0.045625876635313034,-0.04545881226658821,20,0.0,0.0,163,-0.03235284984111786,-0.009477128274738789,0.14884372055530548,0.008766700513660908,-0.011506490409374237,-0.015064448118209839,-0.9997819066047668
278297.337,-2.846121606125962e-05,-0.0072530582547187805,0.012567930854856968,0.0033942877780646086,-0.022794486954808235,1.0000654458999634,0.09455186128616333,0.18712297081947327,0.13212864100933075,20,0.0,0.0,163,-0.03235284984111786,-0.009477128274738789,0.14884372055530548,0.008766700513660908,-0.011506490409374237,-0.015064448118209839,-0.9997819066047668
278299.305,-2.846121606125962e-05,-0.0072530582547187805,0.012567930854856968,0.002999022835865617,-0.022494876757264137,1.0004500150680542,-0.141877219080925,0.16861818730831146,0.2785680294036865,20,0.0,0.0,163,-0.03264022618532181,-0.0091773122549057,0.1493040770292282,0.009427950717508793,-0.010871373116970062,-0.014933421276509762,-0.9997849464416504
278301.289,0.0002375895419390872,-0.006791169289499521,-0.0202077217400074,0.0026909669395536184,-0.022327320650219917,1.000656247138977,-0.18598730862140656,0.018420899286866188,0.23390883207321167,20,0.0,0.0,163,-0.03264022618532181,-0.0091773122549057,0.1493040770292282,0.009427950717508793,-0.010871373116970062,-0.014933421276509762,-0.9997849464416504
278303.279,0.0002375895419390872,-0.006791169289499521,-0.0202077217400074,0.0024870738852769136,-0.022072751075029373,1.0007914304733276,-0.09701874852180481,-0.18283142149448395,-0.023229455575346947,20,0.0,0.0,163,-0.03236561641097069,-0.009478025138378143,0.14886823296546936,0.00884262751787901,-0.011551185511052608,-0.015163746662437916,-0.9997791647911072
278305.569,0.00017872631724458188,-0.0069776116870343685,-0.008957034908235073,0.0027435238007456064,-0.021880708634853363,1.000855803489685,-0.07582928240299225,-0.30979278683662415,-0.17566174268722534,20,0.0,0.0,163,-0.03236561641097069,-0.009478025138378143,0.14886823296546936,0.00884262751787901,-0.011551185511052608,-0.015163746662437916,-0.9997791647911072
278307.232,0.00017872631724458188,-0.0069776116870343685,-0.008957034908235073,0.0030616982840001583,-0.021626893430948257,1.0004814863204956,-0.12912827730178833,-0.24631990492343903,-0.1396033763885498,20,0.0,0.0,163,-0.03236561641097069,-0.009478025138378143,0.14886823296546936,0.00884262751787901,-0.011551185511052608,-0.015163746662437916,-0.9997791647911072
278309.216,0.00017872631724458188,-0.0069776116870343685,-0.008957034908235073,0.003112936159595847,-0.02104664407670498,0.9999711513519287,-0.20283550024032593,0.003566153347492218,-0.15233208239078522,20,0.0,0.0,163,-0.03255647420883179,-0.009233485907316208,0.149186372756958,0.009323515929281712,-0.011155586689710617,-0.014966638758778572,-0.9997823238372803
278311.194,0.0001689800265012309,-0.006745222024619579,0.0037316104862838984,0.003180863568559289,-0.020380899310112,0.9996721744537354,-0.07059776037931442,0.36181941628456116,-0.1249135211110115,20,0.0,0.0,163,-0.03255647420883179,-0.009233485907316208,0.149186372756958,0.009323515929281712,-0.011155586689710617,-0.014966638758778572,-0.9997823238372803
278313.175,0.0001689800265012309,-0.006745222024619579,0.0037316104862838984,0.003400020767003298,-0.020244991406798363,0.9995471835136414,0.02080005779862404,0.40962928533554077,0.04336564242839813,20,0.0,0.0,163,-0.03255647420883179,-0.009233485907316208,0.149186372756958,0.009323515929281712,-0.011155586689710617,-0.014966638758778572,-0.9997823238372803
278315.239,0.0001689800265012309,-0.006745222024619579,0.0037316104862838984,0.0035982253029942513,-0.02046365477144718,0.999363124370575,0.041381556540727615,0.15878942608833313,0.06740894913673401,20,0.0,0.0,163,-0.03255186229944229,-0.00922828447073698,0.14924347400665283,0.009338907897472382,-0.011124773882329464,-0.015055983327329159,-0.9997811317443848
278317.135,9.600022895028815e-05,-0.0066986712627112865,0.017869457602500916,0.003557294374331832,-0.020597686991095543,0.9990395307540894,0.16604875028133392,0.0846455916762352,0.036021750420331955,20,0.0,0.0,163,-0.03255186229944229,-0.00922828447073698,0.14924347400665283,0.009338907897472382,-0.011124773882329464,-0.015055983327329159,-0.9997811317443848
278319.127,9.600022895028815e-05,-0.0066986712627112865,0.017869457602500916,0.003451905446127057,-0.020864076912403107,0.9984591007232666,0.10060302168130875,0.06711959093809128,0.028786690905690193,20,0.0,0.0,162,-0.03255186229944229,-0.00922828447073698,0.14924347400665283,0.009338907897472382,-0.011124773882329464,-0.015055983327329159,-0.9997811317443848
278321.097,9.600022895028815e-05,-0.0066986712627112865,0.017869457602500916,0.0032262192107737064,-0.02136632241308689,0.9980037212371826,-0.08765114843845367,-0.052063360810279846,-0.01994314044713974,20,0.0,0.0,162,-0.0323304682970047,-0.009499626234173775,0.1488877683877945,0.008730758912861347,-0.011602455750107765,-0.015083208680152893,-0.9997808933258057
278323.084,0.0002773322048597038,-0.006496705114841461,-0.015392622910439968,0.002928648144006729,-0.021825307980179787,0.9980283379554749,-0.27202460169792175,-0.19923076033592224,-0.15914590656757355,20,0.0,0.0,162,-0.0323304682970047,-0.009499626234173775,0.1488877683877945,0.008730758912861347,-0.011602455750107765,-0.015083208680152893,-0.9997808933258057
278325.378,0.00024382131232414395,-0.006704194471240044,-0.015503069385886192,0.002542591653764248,-0.021986542269587517,0.9982426762580872,-0.27291205525398254,-0.3125670850276947,-0.2481609582901001,20,0.0,0.0,162,-0.03254023194313049,-0.009261390194296837,0.14925378561019897,0.00927684549242258,-0.011217823252081871,-0.015068196691572666,-0.9997804760932922
278327.042,0.0002352074661757797,-0.006471247412264347,-0.002831963822245598,0.002078770659863949,-0.021943356841802597,0.9983974099159241,-0.08539906144142151,-0.2871997058391571,-0.2779615819454193,20,0.0,0.0,162,-0.03254023194313049,-0.009261390194296837,0.14925378561019897,0.00927684549242258,-0.011217823252081871,-0.015068196691572666,-0.9997804760932922
278329.023,0.0002352074661757797,-0.006471247412264347,-0.002831963822245598,0.0018937567947432399,-0.022050481289625168,0.9986369013786316,0.1882162094116211,-0.22044183313846588,-0.1403861939907074,20,0.0,0.0,162,-0.03254023194313049,-0.009261390194296837,0.14925378561019897,0.00927684549242258,-0.011217823252081871,-0.015068196691572666,-0.9997804760932922
278331.01,0.0002352074661757797,-0.006471247412264347,-0.002831963822245598,0.0024213804863393307,-0.02229291945695877,0.9988371133804321,0.17376171052455902,-0.19394956529140472,-0.17056234180927277,20,0.0,0.0,162,-0.03233770281076431,-0.009482407942414284,0.148862823843956,0.008816310204565525,-0.01169308926910162,-0.015187014825642109,-0.9997774362564087
278332.986,0.00023825911921449006,-0.006275007035583258,0.00940114725381136,0.0031730341725051403,-0.022270580753684044,0.998792827129364,0.06209653615951538,-0.10396797209978104,-0.2559601962566376,20,0.0,0.0,162,-0.03233770281076431,-0.009482407942414284,0.148862823843956,0.008816310204565525,-0.01169308926910162,-0.015187014825642109,-0.9997774362564087
278335.049,0.0001107398493331857,-0.006599266082048416,0.009282290004193783,0.0037606232799589634,-0.021936092525720596,0.9987757205963135,0.10606742650270462,-0.08933524042367935,-0.2523345649242401,20,0.0,0.0,162,-0.03233770281076431,-0.009482407942414284,0.148862823843956,0.008816310204565525,-0.01169308926910162,-0.015187014825642109,-0.9997774362564087
278336.951,0.0001107398493331857,-0.006599266082048416,0.009282290004193783,0.004307460505515337,-0.021636834368109703,0.9988887310028076,0.21180939674377441,-0.1420501172542572,-0.3476245403289795,20,0.0,0.0,162,-0.03251713141798973,-0.009227429516613483,0.14928534626960754,0.009389772079885006,-0.011266857385635376,-0.015067779459059238,-0.9997788667678833
278338.935,0.00010447991371620446,-0.006347792223095894,0.022913586348295212,0.004574947990477085,-0.021445518359541893,0.9989010691642761,0.23214657604694366,-0.1679724156856537,-0.3363051116466522,20,0.0,0.0,162,-0.03251713141798973,-0.009227429516613483,0.14928534626960754,0.009389772079885006,-0.011266857385635376,-0.015067779459059238,-0.9997788667678833
278340.92,-3.3357293432345614e-05,-0.00583284255117178,0.02291284315288067,0.004652302712202072,-0.021435696631669998,0.9986671805381775,0.18814560770988464,-0.1695711463689804,-0.12152549624443054,20,0.0,0.0,162,-0.03251713141798973,-0.009227429516613483,0.14928534626960754,0.009389772079885006,-0.011266857385635376,-0.015067779459059238,-0.9997788667678833
278342.89,0.00011977070971624926,-0.006352354306727648,-0.021559307351708412,0.00467225955799222,-0.021519837900996208,0.9986721873283386,0.04984545335173607,-0.24960914254188538,0.10226592421531677,20,0.0,0.0,162,-0.03235483169555664,-0.009471152909100056,0.14887280762195587,0.008769049309194088,-0.011563030071556568,-0.01493323314934969,-0.9997832179069519
278345.179,0.00018042325973510742,-0.0064537413418293,-0.010789827443659306,0.00460840854793787,-0.021487411111593246,0.9991487264633179,-0.041284140199422836,-0.35787731409072876,0.0901699960231781,20,0.0,0.0,162,-0.03235483169555664,-0.009471152909100056,0.14887280762195587,0.008769049309194088,-0.011563030071556568,-0.01493323314934969,-0.9997832179069519
278346.863,0.00018042325973510742,-0.0064537413418293,-0.010789827443659306,0.004691112786531448,-0.021390916779637337,0.9998151659965515,0.014016546308994293,-0.1693291962146759,-0.014979677274823189,20,0.0,0.0,162,-0.032279275357723236,-0.009453722275793552,0.14892981946468353,0.009138695895671844,-0.011747026816010475,-0.015569652430713177,-0.999768078327179
278348.835,0.0001873565634014085,-0.006248779129236937,0.0014362296788021922,0.00507190078496933,-0.021284563466906548,1.0004520416259766,0.002875121310353279,0.07725073397159576,-0.04432756453752518,20,0.0,0.0,162,-0.032279275357723236,-0.009453722275793552,0.14892981946468353,0.009138695895671844,-0.011747026816010475,-0.015569652430713177,-0.999768078327179
278350.816,0.0001873565634014085,-0.006248779129236937,0.0014362296788021922,0.005565127357840538,-0.021096687763929367,1.0007307529449463,-0.1350591629743576,0.15897206962108612,-0.03607387840747833,20,0.0,0.0,162,-0.032279275357723236,-0.009453722275793552,0.14892981946468353,0.009138695895671844,-0.011747026816010475,-0.015569652430713177,-0.999768078327179
278352.797,0.0001873565634014085,-0.006248779129236937,0.0014362296788021922,0.005751362070441246,-0.020952904596924782,1.0007084608078003,-0.19498443603515625,0.060258857905864716,-0.021557366475462914,20,0.0,0.0,162,-0.03232564404606819,-0.009532742202281952,0.14882118999958038,0.008652476593852043,-0.011599985882639885,-0.015213501639664173,-0.9997795820236206
278354.863,0.00032775173895061016,-0.006306022871285677,0.013312207534909248,0.005677875597029924,-0.02104472741484642,1.000726580619812,-0.16747163236141205,-0.14144979417324066,0.035787057131528854,20,0.0,0.0,162,-0.03232564404606819,-0.009532742202281952,0.14882118999958038,0.008652476593852043,-0.011599985882639885,-0.015213501639664173,-0.9997795820236206
278356.76,0.00032775173895061016,-0.006306022871285677,0.013312207534909248,0.005393977276980877,-0.02142173796892166,1.0008450746536255,-0.06310191750526428,-0.29106026887893677,0.031106723472476006,20,0.0,0.0,162,-0.03232564404606819,-0.009532742202281952,0.14882118999958038,0.008652476593852043,-0.011599985882639885,-0.015213501639664173,-0.9997795820236206
278358.742,0.00032775173895061016,-0.006306022871285677,0.013312207534909248,0.0048452201299369335,-0.022051040083169937,1.0009628534317017,0.22744359076023102,-0.1750524640083313,-0.09003393352031708,20,0.0,0.0,162,-0.032570578157901764,-0.00921393372118473,0.1493011862039566,0.009420553222298622,-0.011086137033998966,-0.015061539597809315,-0.9997807741165161
278360.727,0.0003219637437723577,-0.006061151623725891,0.02649063989520073,0.004151159431785345,-0.022643951699137688,1.0008370876312256,0.35298261046409607,0.028320226818323135,-0.10746951401233673,20,0.0,0.0,162,-0.032570578157901764,-0.00921393372118473,0.1493011862039566,0.009420553222298622,-0.011086137033998966,-0.015061539597809315,-0.9997807741165161
278362.703,0.000359741214197129,-0.006112467963248491,-0.017753511667251587,0.003443685360252857,-0.022875063121318817,1.000657320022583,0.16841596364974976,0.07778315991163254,-0.039165813475847244,20,0.0,0.0,162,-0.032570578157901764,-0.00921393372118473,0.1493011862039566,0.009420553222298622,-0.011086137033998966,-0.015061539597809315,-0.9997807741165161
278365.011,0.000359741214197129,-0.006112467963248491,-0.017753511667251587,0.0030792823527008295,-0.022874461486935616,1.0003169775009155,-0.03203776106238365,-0.10488972067832947,0.002123442944139242,20,0.0,0.0,162,-0.03234715759754181,-0.00951626431196928,0.1488645374774933,0.008648532442748547,-0.011667623184621334,-0.015025139786303043,-0.9997817277908325
278366.666,0.00045796012273058295,-0.006229279097169638,-0.00548158073797822,0.0033200925681740046,-0.022999541833996773,0.9998916983604431,0.021411322057247162,-0.17362752556800842,0.0979771614074707,20,0.0,0.0,162,-0.03234715759754181,-0.00951626431196928,0.1488645374774933,0.008648532442748547,-0.011667623184621334,-0.015025139786303043,-0.9997817277908325
278368.658,0.00045796012273058295,-0.006229279097169638,-0.00548158073797822,0.003752397606149316,-0.022887757048010826,0.9994495511054993,0.060086507350206375,-0.08379308879375458,0.2227150946855545,20,0.0,0.0,162,-0.03234715759754181,-0.00951626431196928,0.1488645374774933,0.008648532442748547,-0.011667623184621334,-0.015025139786303043,-0.9997817277908325
278370.637,0.00045796012273058295,-0.006229279097169638,-0.00548158073797822,0.004156916867941618,-0.02238543890416622,0.9990639686584473,-0.12142676115036011,0.009512403979897499,0.13505178689956665,20,0.0,0.0,162,-0.03249432519078255,-0.0092542739585042,0.14919306337833405,0.009312041103839874,-0.01133018545806408,-0.015026646666228771,-0.9997795224189758
278372.61,0.00045765849063172936,-0.006011169403791428,0.006350483745336533,0.00451233983039856,-0.0218830406665802,0.9990911483764648,-0.21742023527622223,0.006307677831500769,-0.009607480838894844,20,0.0,0.0,162,-0.03249432519078255,-0.0092542739585042,0.14919306337833405,0.009312041103839874,-0.01133018545806408,-0.015026646666228771,-0.9997795224189758
278374.671,0.0004499845381360501,-0.006398445926606655,0.006339904852211475,0.004547181073576212,-0.021167892962694168,0.999261736869812,-0.16308711469173431,0.0033384449779987335,0.0874849408864975,20,0.0,0.0,162,-0.032306838780641556,-0.009481682442128658,0.148871511220932,0.008745431900024414,-0.011653468944132328,-0.015017930418252945,-0.99978107213974
278376.572,0.00045878332457505167,-0.006183409132063389,0.019392874091863632,0.0035447466652840376,-0.021529067307710648,0.9993946552276611,0.07750149816274643,-0.0232994481921196,0.1372218281030655,20,0.0,0.0,162,-0.032306838780641556,-0.009481682442128658,0.148871511220932,0.008745431900024414,-0.011653468944132328,-0.015017930418252945,-0.99978107213974
278378.553,0.00045878332457505167,-0.006183409132063389,0.019392874091863632,0.0032056455966085196,-0.023701995611190796,0.999443769454956,0.18866631388664246,-0.09845762699842453,-0.9260101318359375,20,0.0,0.0,162,-0.032306838780641556,-0.009481682442128658,0.148871511220932,0.008745431900024414,-0.011653468944132328,-0.015017930418252945,-0.99978107213974
278380.538,0.00045878332457505167,-0.006183409132063389,0.019392874091863632,0.0035784130450338125,-0.023836862295866013,0.9990791082382202,-0.025697212666273117,-0.2575743496417999,-1.8428438901901245,20,0.0,0.0,162,-0.032351963222026825,-0.009486156515777111,0.14883454144001007,0.008775422349572182,-0.011603710241615772,-0.015144015662372112,-0.999779462814331
278382.519,0.00045878332457505167,-0.006183409132063389,0.019392874091863632,0.0016209728782996535,-0.02168666198849678,0.9994136691093445,-0.08298278599977493,-0.40363451838493347,0.1876821517944336,20,0.0,0.0,162,-0.032351963222026825,-0.009486156515777111,0.14883454144001007,0.008775422349572182,-0.011603710241615772,-0.015144015662372112,-0.999779462814331
278384.811,0.0003960994363296777,-0.006372182630002499,-0.012096770107746124,-0.0012423924636095762,-0.02057638391852379,1.0000693798065186,0.11135385930538177,-0.1816566288471222,2.8534035682678223,20,0.0,0.0,162,-0.032351963222026825,-0.009486156515777111,0.14883454144001007,0.008775422349572182,-0.011603710241615772,-0.015144015662372112,-0.999779462814331
278386.477,0.0003960994363296777,-0.006372182630002499,-0.012096770107746124,-0.0009726348798722029,-0.02057981863617897,0.999965488910675,0.3625510632991791,0.29765260219573975,2.5341150760650635,20,0.0,0.0,162,-0.03235844522714615,-0.009489004500210285,0.14885453879833221,0.00881117396056652,-0.011523311957716942,-0.015127841383218765,-0.9997804164886475
278388.46,0.00040441189776174724,-0.006177079398185015,-0.00033271004213020205,0.001724859932437539,-0.02280556969344616,0.9999512434005737,0.36452335119247437,0.46565088629722595,0.44651293754577637,20,0.0,0.0,162,-0.03235844522714615,-0.009489004500210285,0.14885453879833221,0.00881117396056652,-0.011523311957716942,-0.015127841383218765,-0.9997804164886475
278390.451,0.00040441189776174724,-0.006177079398185015,-0.00033271004213020205,0.004557533655315638,-0.02642909809947014,1.0001351833343506,-0.0007562809041701257,0.1132851243019104,-1.6652798652648926,20,0.0,0.0,162,-0.03235844522714615,-0.009489004500210285,0.14885453879833221,0.00881117396056652,-0.011523311957716942,-0.015127841383218765,-0.9997804164886475
278392.421,0.00040441189776174724,-0.006177079398185015,-0.00033271004213020205,0.006153005640953779,-0.027280740439891815,0.9999321103096008,-0.35267022252082825,-0.23603853583335876,-3.399132013320923,20,0.0,0.0,162,-0.032295528799295425,-0.009479614906013012,0.14894497394561768,0.009068437851965427,-0.01160686556249857,-0.015498684719204903,-0.9997714161872864
278394.483,0.0002175199188059196,-0.0064390129409730434,0.011112667620182037,0.005602126941084862,-0.024379795417189598,0.9994831085205078,-0.22707690298557281,-0.36172163486480713,-3.184495210647583,20,0.0,0.0,162,-0.032295528799295425,-0.009479614906013012,0.14894497394561768,0.009068437851965427,-0.01160686556249857,-0.015498684719204903,-0.9997714161872864
278396.396,0.0002175199188059196,-0.0064390129409730434,0.011112667620182037,0.0036445532459765673,-0.020879454910755157,0.9993007183074951,0.10235097259283066,-0.33010607957839966,-0.6401054263114929,20,0.0,0.0,162,-0.032295528799295425,-0.009479614906013012,0.14894497394561768,0.009068437851965427,-0.01160686556249857,-0.015498684719204903,-0.9997714161872864
278398.368,0.0002175199188059196,-0.0064390129409730434,0.011112667620182037,0.002172804204747081,-0.01954421028494835,0.9998594522476196,0.2231060415506363,-0.04896468669176102,1.8134393692016602,20,0.0,0.0,162,-0.03231825307011604,-0.009488069452345371,0.14885872602462769,0.008788743056356907,-0.011576041579246521,-0.015107990242540836,-0.9997802972793579
278400.352,0.00022955145686864853,-0.006231282372027636,0.02375706285238266,0.0024455238599330187,-0.021225489675998688,1.0011794567108154,0.2275993824005127,0.38650310039520264,2.5638887882232666,20,0.0,0.0,162,-0.03231825307011604,-0.009488069452345371,0.14885872602462769,0.008788743056356907,-0.011576041579246521,-0.015107990242540836,-0.9997802972793579
278402.327,0.00022955145686864853,-0.006231282372027636,0.02375706285238266,0.004429587163031101,-0.02504117414355278,1.002392053604126,0.07774291187524796,0.4136423170566559,1.7013670206069946,20,0.0,0.0,162,-0.03250808268785477,-0.009252652525901794,0.1492866575717926,0.009317215532064438,-0.011184381321072578,-0.015096047893166542,-0.9997801184654236
278404.629,0.0005933726206421852,-0.006412130314856768,-0.00788438692688942,0.006159629672765732,-0.027892393991351128,1.002879023551941,-0.029114242643117905,0.05291440710425377,0.04672592133283615,20,0.0,0.0,162,-0.03250808268785477,-0.009252652525901794,0.1492866575717926,0.009317215532064438,-0.011184381321072578,-0.015096047893166542,-0.9997801184654236
278406.291,0.0005933726206421852,-0.006412130314856768,-0.00788438692688942,0.006067787297070026,-0.028158580884337425,1.002628207206726,-0.09483089298009872,-0.24083618819713593,-1.1874974966049194,20,0.0,0.0,162,-0.03250808268785477,-0.009252652525901794,0.1492866575717926,0.009317215532064438,-0.011184381321072578,-0.015096047893166542,-0.9997801184654236
278408.272,0.0005933726206421852,-0.006412130314856768,-0.00788438692688942,0.004353459924459457,-0.026714039966464043,1.0017285346984863,-0.20531879365444183,-0.3046500086784363,-1.2790745496749878,20,0.0,0.0,162,-0.03235669434070587,-0.009444703347980976,0.14884904026985168,0.00886539276689291,-0.011545397341251373,-0.015168661251664162,-0.9997789859771729
278410.261,0.0005989960045553744,-0.006219233386218548,0.003553697606548667,0.0019493983127176762,-0.024819431826472282,1.0006911754608154,-0.08299100399017334,-0.28088995814323425,-0.807772696018219,20,0.0,0.0,162,-0.03235669434070587,-0.009444703347980976,0.14884904026985168,0.00886539276689291,-0.011545397341251373,-0.015168661251664162,-0.9997789859771729
278412.236,0.0005989960045553744,-0.006219233386218548,0.003553697606548667,-0.00011205342161701992,-0.023535672575235367,1.0001451969146729,0.12502259016036987,-0.20810934901237488,-0.42451566457748413,20,0.0,0.0,162,-0.03235669434070587,-0.009444703347980976,0.14884904026985168,0.00886539276689291,-0.011545397341251373,-0.015168661251664162,-0.9997789859771729
278414.295,0.0005989960045553744,-0.006219233386218548,0.003553697606548667,-0.00048498931573703885,-0.02325812168419361,1.000069260597229,0.19209857285022736,-0.08051998168230057,-0.018856817856431007,20,0.0,0.0,162,-0.03234042227268219,-0.009507603943347931,0.148838609457016,0.008644482120871544,-0.011655538342893124,-0.015111928805708885,-0.999780535697937
278416.197,0.0006107765948399901,-0.006761460565030575,0.016435956582427025,0.0012367746094241738,-0.023890644311904907,1.0000483989715576,0.1528092324733734,-0.036511313170194626,0.3276495337486267,20,0.0,0.0,162,-0.03234042227268219,-0.009507603943347931,0.148838609457016,0.008644482120871544,-0.011655538342893124,-0.015111928805708885,-0.999780535697937
278418.178,0.0006107765948399901,-0.006761460565030575,0.016435956582427025,0.003828006098046899,-0.0244426429271698,0.9993835687637329,0.0246342271566391,-0.08294517546892166,0.39692625403404236,20,0.0,0.0,162,-0.03234042227268219,-0.009507603943347931,0.148838609457016,0.008644482120871544,-0.011655538342893124,-0.015111928805708885,-0.999780535697937
278420.158,0.0006107765948399901,-0.006761460565030575,0.016435956582427025,0.006068389862775803,-0.024146292358636856,0.9984450340270996,-0.05045878514647484,-0.18474970757961273,0.20370855927467346,20,0.0,0.0,162,-0.032324258238077164,-0.009495125152170658,0.14879535138607025,0.008714105933904648,-0.011552872136235237,-0.01516546681523323,-0.9997803568840027
278422.153,0.0006197740440256894,-0.006562868598848581,0.02869514189660549,0.007706309203058481,-0.023113317787647247,0.9977433085441589,0.03853442892432213,-0.3608973026275635,-0.051287222653627396,20,0.0,0.0,162,-0.032324258238077164,-0.009495125152170658,0.14879535138607025,0.008714105933904648,-0.011552872136235237,-0.01516546681523323,-0.9997803568840027
278424.43,0.00041142970439977944,-0.007004520855844021,-0.01821042224764824,0.008014370687305927,-0.021692922338843346,0.9974640607833862,0.10378070175647736,-0.29793813824653625,-0.400373637676239,20,0.0,0.0,162,-0.032329533249139786,-0.009467946365475655,0.14886875450611115,0.00881484430283308,-0.011564587242901325,-0.015094194561243057,-0.9997803568840027
278426.103,0.0004226897726766765,-0.006818639580160379,-0.007222142536193132,0.006591867655515671,-0.02080599218606949,0.997945249080658,0.025948235765099525,-0.07033868879079819,-0.45682111382484436,20,0.0,0.0,162,-0.032329533249139786,-0.009467946365475655,0.14886875450611115,0.00881484430283308,-0.011564587242901325,-0.015094194561243057,-0.9997803568840027
278428.084,0.0004226897726766765,-0.006818639580160379,-0.007222142536193132,0.004518921487033367,-0.021048355847597122,0.9989411234855652,-0.18403346836566925,0.07856915146112442,-0.06418895721435547,20,0.0,0.0,162,-0.032329533249139786,-0.009467946365475655,0.14886875450611115,0.00881484430283308,-0.011564587242901325,-0.015094194561243057,-0.9997803568840027
278430.066,0.0004226897726766765,-0.006818639580160379,-0.007222142536193132,0.002755885012447834,-0.02190500497817993,0.9998763799667358,-0.18237440288066864,0.06864151358604431,0.22626076638698578,20,0.0,0.0,162,-0.032585665583610535,-0.009192475117743015,0.14926546812057495,0.009464612230658531,-0.01099479477852583,-0.01506559643894434,-0.9997812509536743
278432.055,0.00042353305616416037,-0.00661215977743268,0.0034912179689854383,0.0017936514923349023,-0.022711267694830894,1.0007470846176147,-0.007904356345534325,-0.04463130235671997,0.2688850462436676,20,0.0,0.0,162,-0.032585665583610535,-0.009192475117743015,0.14926546812057495,0.009464612230658531,-0.01099479477852583,-0.01506559643894434,-0.9997812509536743
278434.144,0.0005416639614850283,-0.00691083911806345,0.0033997981809079647,0.001955437706783414,-0.023168902844190598,1.0014275312423706,0.03717603534460068,-0.10455945879220963,0.07679194211959839,20,0.0,0.0,162,-0.032585665583610535,-0.009192475117743015,0.14926546812057495,0.009464612230658531,-0.01099479477852583,-0.01506559643894434,-0.9997812509536743
278436.012,0.0005416639614850283,-0.00691083911806345,0.0033997981809079647,0.0028878771699965,-0.02316371351480484,1.0014444589614868,-0.02623692899942398,-0.13223950564861298,-0.3706137537956238,20,0.0,0.0,162,-0.03233978524804115,-0.009479832835495472,0.1488412320613861,0.008707992732524872,-0.011543884873390198,-0.015076286159455776,-0.9997818470001221
278437.989,0.000554386293515563,-0.006713990122079849,0.015282886102795601,0.003775201039388776,-0.023102883249521255,1.0009981393814087,-0.07999817281961441,-0.1871529370546341,-0.6877917647361755,20,0.0,0.0,162,-0.03233978524804115,-0.009479832835495472,0.1488412320613861,0.008707992732524872,-0.011543884873390198,-0.015076286159455776,-0.9997818470001221
278439.986,0.000554386293515563,-0.006713990122079849,0.015282886102795601,0.004348164424300194,-0.023379525169730186,1.00059974193573,0.14457322657108307,-0.22806662321090698,-0.7119078040122986,20,0.0,0.0,162,-0.03233978524804115,-0.009479832835495472,0.1488412320613861,0.008707992732524872,-0.011543884873390198,-0.015076286159455776,-0.9997818470001221
278441.956,0.000554386293515563,-0.006713990122079849,0.015282886102795601,0.004331015516072512,-0.023620763793587685,1.0003122091293335,0.2108980417251587,-0.14378340542316437,-0.49690139293670654,20,0.0,0.0,162,-0.03255816176533699,-0.009213123470544815,0.14925916492938995,0.00944355595856905,-0.011116797104477882,-0.01501030195504427,-0.9997809529304504
278444.288,0.00043103977805003524,-0.0069401985965669155,-0.013082674704492092,0.0037747612223029137,-0.023296814411878586,0.9999206066131592,0.06143034249544144,-0.18809626996517181,-0.07147271931171417,20,0.0,0.0,162,-0.03255816176533699,-0.009213123470544815,0.14925916492938995,0.00944355595856905,-0.011116797104477882,-0.01501030195504427,-0.9997809529304504
278445.915,0.00043103977805003524,-0.0069401985965669155,-0.013082674704492092,0.0035919558722525835,-0.022654127329587936,0.9996060729026794,-0.012144568376243114,-0.2709503769874573,0.26181596517562866,20,0.0,0.0,162,-0.03255816176533699,-0.009213123470544815,0.14925916492938995,0.00944355595856905,-0.011116797104477882,-0.01501030195504427,-0.9997809529304504
278447.895,0.0004460904747247696,-0.006760225631296635,-0.002202350413426757,0.003986955154687166,-0.021979879587888718,0.9994623064994812,0.0029043874237686396,-0.20310524106025696,0.2971644401550293,20,0.0,0.0,162,-0.032319482415914536,-0.009491495788097382,0.1488596796989441,0.00872838869690895,-0.011724118143320084,-0.015087828040122986,-0.9997794032096863
278449.876,0.0004460904747247696,-0.006760225631296635,-0.002202350413426757,0.004385929089039564,-0.02179274521768093,0.9994950294494629,0.14585375785827637,-0.030009908601641655,0.1011449471116066,20,0.0,0.0,162,-0.032319482415914536,-0.009491495788097382,0.1488596796989441,0.00872838869690895,-0.011724118143320084,-0.015087828040122986,-0.9997794032096863
278451.857,0.0004460904747247696,-0.006760225631296635,-0.002202350413426757,0.0048453314229846,-0.02254730463027954,0.9996662735939026,0.14432542026042938,0.07525984942913055,-0.22107623517513275,20,0.0,0.0,162,-0.03233426436781883,-0.00949916522949934,0.14891217648983002,0.008763357065618038,-0.011664015240967274,-0.015128524042665958,-0.9997791051864624
278453.964,3.777734309551306e-05,-0.004654706921428442,0.00829058326780796,0.005237197037786245,-0.02362978830933571,0.9996263980865479,-0.026368413120508194,-0.06698344647884369,-0.4657000005245209,20,0.0,0.0,162,-0.03233426436781883,-0.00949916522949934,0.14891217648983002,0.008763357065618038,-0.011664015240967274,-0.015128524042665958,-0.9997791051864624
278455.82,3.777734309551306e-05,-0.004654706921428442,0.00829058326780796,0.005142297595739365,-0.024209260940551758,0.9995842576026917,-0.1160164475440979,-0.31989067792892456,-0.46221691370010376,20,0.0,0.0,162,-0.03233426436781883,-0.00949916522949934,0.14891217648983002,0.008763357065618038,-0.011664015240967274,-0.015128524042665958,-0.9997791051864624
278457.801,3.777734309551306e-05,-0.004654706921428442,0.00829058326780796,0.004566311836242676,-0.02398236095905304,0.9997142553329468,-0.0905776172876358,-0.4030468761920929,-0.296159565448761,20,0.0,0.0,162,-0.0324934683740139,-0.009293288923799992,0.14918699860572815,0.00922081246972084,-0.011315501295030117,-0.015045291744172573,-0.9997802972793579
278459.782,4.372763214632869e-05,-0.004438968375325203,0.0200809258967638,0.004189732018858194,-0.02312960848212242,0.9996406435966492,-0.057536642998456955,-0.16972333192825317,-0.12143868952989578,20,0.0,0.0,162,-0.0324934683740139,-0.009293288923799992,0.14918699860572815,0.00922081246972084,-0.011315501295030117,-0.015045291744172573,-0.9997802972793579
278461.779,4.372763214632869e-05,-0.004438968375325203,0.0200809258967638,0.004433144349604845,-0.02218025177717209,0.9994163513183594,0.046024665236473083,0.15224401652812958,-0.08578772097826004,20,0.0,0.0,162,-0.0324934683740139,-0.009293288923799992,0.14918699860572815,0.00922081246972084,-0.011315501295030117,-0.015045291744172573,-0.9997802972793579
278464.094,4.372763214632869e-05,-0.004438968375325203,0.0200809258967638,0.004941715858876705,-0.021282443776726723,0.9996674060821533,0.12339939177036285,0.18222905695438385,0.15923117101192474,20,0.0,0.0,162,-0.032334569841623306,-0.009475309401750565,0.1488576978445053,0.008776206523180008,-0.01170459296554327,-0.015082535333931446,-0.9997792840003967
278465.733,-6.89964581397362e-05,-0.0026584153529256582,-0.012683166190981865,0.0057198842987418175,-0.021376827731728554,1.0004231929779053,0.046468671411275864,0.06675567477941513,0.2720004916191101,20,0.0,0.0,162,-0.032334569841623306,-0.009475309401750565,0.1488576978445053,0.008776206523180008,-0.01170459296554327,-0.015082535333931446,-0.9997792840003967
278467.708,-6.89964581397362e-05,-0.0026584153529256582,-0.012683166190981865,0.006594973150640726,-0.023120179772377014,1.0008578300476074,-0.07147248834371567,-0.03838247060775757,-0.3647238612174988,20,0.0,0.0,162,-0.032369788736104965,-0.009478862397372723,0.14883840084075928,0.008828788995742798,-0.011572016403079033,-0.015074597671627998,-0.9997804760932922
278469.689,-6.208437116583809e-05,-0.0024819206446409225,-0.002393907168880105,0.006661648396402597,-0.02476058155298233,1.0006933212280273,-0.19034166634082794,-0.10779763013124466,-1.3190988302230835,20,0.0,0.0,162,-0.032369788736104965,-0.009478862397372723,0.14883840084075928,0.008828788995742798,-0.011572016403079033,-0.015074597671627998,-0.9997804760932922
278471.67,-6.208437116583809e-05,-0.0024819206446409225,-0.002393907168880105,0.006548214703798294,-0.025766901671886444,1.000227689743042,-0.23542644083499908,-0.07321059703826904,-1.7613455057144165,20,0.0,0.0,162,-0.032369788736104965,-0.009478862397372723,0.14883840084075928,0.008828788995742798,-0.011572016403079033,-0.015074597671627998,-0.9997804760932922
278473.769,-0.00047169317258521914,-0.0006234668544493616,-0.002371859736740589,0.006636403501033783,-0.025733066722750664,0.9997970461845398,-0.22344104945659637,0.05882318317890167,-1.544870376586914,20,0.0,0.0,162,-0.0322863794863224,-0.009475799277424812,0.14894375205039978,0.009004977531731129,-0.01170776691287756,-0.015514089725911617,-0.9997705221176147
278475.632,-0.000463057222077623,-0.0004273080558050424,0.009121796116232872,0.006566360127180815,-0.024428969249129295,0.9991304874420166,-0.09860498458147049,0.016241103410720825,-1.0161643028259277,20,0.0,0.0,162,-0.0322863794863224,-0.009475799277424812,0.14894375205039978,0.009004977531731129,-0.01170776691287756,-0.015514089725911617,-0.9997705221176147
278477.613,-0.000463057222077623,-0.0004273080558050424,0.009121796116232872,0.006856193765997887,-0.0229021105915308,0.9985432624816895,0.0372370183467865,-0.1504809558391571,-0.20880354940891266,20,0.0,0.0,162,-0.0322863794863224,-0.009475799277424812,0.14894375205039978,0.009004977531731129,-0.01170776691287756,-0.015514089725911617,-0.9997705221176147
278479.594,-0.000463057222077623,-0.0004273080558050424,0.009121796116232872,0.007764934562146664,-0.021932922303676605,0.9982603788375854,0.15126053988933563,-0.15271790325641632,0.7067072987556458,20,0.0,0.0,162,-0.032338403165340424,-0.009475183673202991,0.14883705973625183,0.008781480602920055,-0.011621477082371712,-0.015121428295969963,-0.9997795820236206
278481.588,-0.0004550976736936718,-0.0002429331507300958,0.0202473271638155,0.00832032598555088,-0.021773546934127808,0.998494029045105,0.1835271120071411,-0.05313171073794365,1.0181258916854858,20,0.0,0.0,162,-0.032338403165340424,-0.009475183673202991,0.14883705973625183,0.008781480602920055,-0.011621477082371712,-0.015121428295969963,-0.9997795820236206
278483.935,-0.0008499641553498805,0.0015802511479705572,0.020063336938619614,0.007658177986741066,-0.022094108164310455,0.998873770236969,0.08605649322271347,0.10083489120006561,0.9528096914291382,20,0.0,0.0,163,-0.032338403165340424,-0.009475183673202991,0.14883705973625183,0.008781480602920055,-0.011621477082371712,-0.015121428295969963,-0.9997795820236206
278485.537,-0.0008499641553498805,0.0015802511479705572,0.020063336938619614,0.006126497406512499,-0.022079162299633026,0.9994091391563416,-0.15833696722984314,0.1174413412809372,0.6920148134231567,20,0.0,0.0,163,-0.03234720230102539,-0.00949129555374384,0.1488592028617859,0.008738325908780098,-0.011601883918046951,-0.015177079476416111,-0.9997793436050415
278487.521,-0.000561654509510845,0.0010684708831831813,-0.011667080223560333,0.0040214778855443,-0.021716004237532616,0.9998443722724915,-0.23328188061714172,0.10321943461894989,0.33072546124458313,20,0.0,0.0,163,-0.03234720230102539,-0.00949129555374384,0.1488592028617859,0.008738325908780098,-0.011601883918046951,-0.015177079476416111,-0.9997793436050415
278489.501,-0.000561654509510845,0.0010684708831831813,-0.011667080223560333,0.00210824073292315,-0.02166937105357647,0.9998955726623535,-0.11430435627698898,0.12204999476671219,0.17406286299228668,20,0.0,0.0,163,-0.032365910708904266,-0.009501464664936066,0.14884839951992035,0.008789989165961742,-0.011535215191543102,-0.015088725835084915,-0.9997810125350952
278491.482,-0.0005582946469075978,0.0012404395965859294,-0.0017985289450734854,0.0009563266066834331,-0.021880680695176125,1.000004529953003,-0.08122080564498901,0.0544741153717041,0.1843116283416748,20,0.0,0.0,163,-0.032365910708904266,-0.009501464664936066,0.14884839951992035,0.008789989165961742,-0.011535215191543102,-0.015088725835084915,-0.9997810125350952
278493.59,-0.0009507214999757707,0.003031340893357992,-0.001856067217886448,0.0004940449725836515,-0.021844254806637764,1.0003341436386108,-0.10572101175785065,-0.07330632954835892,0.23349402844905853,20,0.0,0.0,163,-0.032365910708904266,-0.009501464664936066,0.14884839951992035,0.008789989165961742,-0.011535215191543102,-0.015088725835084915,-0.9997810125350952
278495.445,-0.0009507214999757707,0.003031340893357992,-0.001856067217886448,0.0005519622354768217,-0.022143244743347168,1.0008717775344849,-0.008856995962560177,-0.11682084947824478,0.41680431365966797,20,0.0,0.0,163,-0.032304659485816956,-0.009479877538979053,0.14895570278167725,0.00905862171202898,-0.011615903116762638,-0.015527673065662384,-0.9997709393501282
278497.426,-0.0009466254850849509,0.0032216678373515606,0.009207082912325859,0.0007032382418401539,-0.0230436772108078,1.001327633857727,-0.02996819280087948,-0.11873450130224228,0.5332350730895996,20,0.0,0.0,163,-0.032304659485816956,-0.009479877538979053,0.14895570278167725,0.00905862171202898,-0.011615903116762638,-0.015527673065662384,-0.9997709393501282
278499.407,-0.0009466254850849509,0.0032216678373515606,0.009207082912325859,0.0006404247251339257,-0.023822428658604622,1.0012998580932617,-0.2449362576007843,-0.05507556349039078,0.1577785760164261,20,0.0,0.0,163,-0.032304659485816956,-0.009479877538979053,0.14895570278167725,0.00905862171202898,-0.011615903116762638,-0.015527673065662384,-0.9997709393501282
278501.398,-0.0009466254850849509,0.0032216678373515606,0.009207082912325859,0.0008703327039256692,-0.024032019078731537,1.0007007122039795,-0.2693730890750885,-0.13586373627185822,-0.34451428055763245,20,0.0,0.0,163,-0.0323602594435215,-0.00929052010178566,0.1491951048374176,0.00944148376584053,-0.01151654589921236,-0.015519634820520878,-0.9997687339782715
278503.729,-0.0009444923489354551,0.003266414161771536,0.01996455527842045,0.001251477631740272,-0.02383718267083168,0.9999582171440125,-0.09194635599851608,-0.28670230507850647,-0.4694920778274536,20,0.0,0.0,162,-0.0323602594435215,-0.00929052010178566,0.1491951048374176,0.00944148376584053,-0.01151654589921236,-0.015519634820520878,-0.9997687339782715
278505.351,-0.0011946980375796556,0.004634661599993706,-0.021498557180166245,0.001259896787814796,-0.023367304354906082,0.9994463920593262,0.11180701106786728,-0.2620590925216675,-0.28566503524780273,20,0.0,0.0,162,-0.0323602594435215,-0.00929052010178566,0.1491951048374176,0.00944148376584053,-0.01151654589921236,-0.015519634820520878,-0.9997687339782715
278507.331,-0.0011946980375796556,0.004634661599993706,-0.021498557180166245,0.0013886615633964539,-0.022733528167009354,0.9992902874946594,0.1539723426103592,0.006998670287430286,0.03587893769145012,20,0.0,0.0,162,-0.032371845096349716,-0.009490994736552238,0.14884988963603973,0.008797812275588512,-0.011539534665644169,-0.015088643878698349,-0.9997808933258057
278509.313,-0.0011921442346647382,0.004809767939150333,-0.01154289860278368,0.0019314948003739119,-0.02219982072710991,0.9995071291923523,0.0793319046497345,0.09807523339986801,0.32104116678237915,20,0.0,0.0,162,-0.032371845096349716,-0.009490994736552238,0.14884988963603973,0.008797812275588512,-0.011539534665644169,-0.015088643878698349,-0.9997808933258057
278511.305,-0.0011921442346647382,0.004809767939150333,-0.01154289860278368,0.002685368061065674,-0.02181212417781353,1.0000028610229492,0.017898956313729286,-0.023163046687841415,0.5131983160972595,20,0.0,0.0,162,-0.032371845096349716,-0.009490994736552238,0.14884988963603973,0.008797812275588512,-0.011539534665644169,-0.015088643878698349,-0.9997808933258057
278513.403,-0.001187921967357397,0.004973087925463915,-0.0018573717679828405,0.003449376905336976,-0.02159331738948822,1.0003992319107056,0.021531784906983376,-0.11498423665761948,0.40040022134780884,20,0.0,0.0,162,-0.03236820548772812,-0.009517327882349491,0.14879709482192993,0.0085938461124897,-0.011623241938650608,-0.015020097605884075,-0.9997827410697937
278515.257,-0.0015520050656050444,0.006702648475766182,-0.0019052119459956884,0.004251185804605484,-0.021627604961395264,1.000444769859314,0.01922442950308323,-0.08175910264253616,0.09890935570001602,20,0.0,0.0,162,-0.03236820548772812,-0.009517327882349491,0.14879709482192993,0.0085938461124897,-0.011623241938650608,-0.015020097605884075,-0.9997827410697937
278517.238,-0.0015520050656050444,0.006702648475766182,-0.0019052119459956884,0.004882221110165119,-0.021609598770737648,1.000430941581726,-0.020471828058362007,-0.1084466427564621,-0.12553735077381134,20,0.0,0.0,162,-0.0325234979391098,-0.009205560199916363,0.1491880565881729,0.009461452253162861,-0.011303423903882504,-0.015059866942465305,-0.9997779130935669
278519.22,-0.0015553078847005963,0.006909980904310942,0.009001732803881168,0.005266975145787001,-0.021227536723017693,1.00058114528656,0.0026523061096668243,-0.24975574016571045,-0.23541629314422607,20,0.0,0.0,162,-0.0325234979391098,-0.009205560199916363,0.1491880565881729,0.009461452253162861,-0.011303423903882504,-0.015059866942465305,-0.9997779130935669
278521.201,-0.0015553078847005963,0.006909980904310942,0.009001732803881168,0.005680993665009737,-0.020764334127306938,1.0009071826934814,0.0900942012667656,-0.2895370125770569,-0.11357811093330383,20,0.0,0.0,162,-0.0325234979391098,-0.009205560199916363,0.1491880565881729,0.009461452253162861,-0.011303423903882504,-0.015059866942465305,-0.9997779130935669
278523.547,-0.0015553078847005963,0.006909980904310942,0.009001732803881168,0.006148149259388447,-0.02059844508767128,1.0012110471725464,0.2558765411376953,-0.19297285377979279,0.19450893998146057,20,0.0,0.0,163,-0.032328639179468155,-0.009489673189818859,0.1488581895828247,0.008704032748937607,-0.011688086204230785,-0.015135841444134712,-0.999779224395752
278525.162,-0.0015553078847005963,0.006909980904310942,0.009001732803881168,0.00662910845130682,-0.020788371562957764,1.0014595985412598,0.1578208953142166,-0.09686248004436493,0.3705950677394867,20,0.0,0.0,163,-0.032328639179468155,-0.009489673189818859,0.1488581895828247,0.008704032748937607,-0.011688086204230785,-0.015135841444134712,-0.999779224395752
278527.144,-0.0016336310654878616,0.007660307921469212,-0.020089108496904373,0.007185705471783876,-0.021409349516034126,1.001483678817749,-0.08137442916631699,-0.1252547800540924,0.29710274934768677,20,0.0,0.0,163,-0.032328639179468155,-0.009489673189818859,0.1488581895828247,0.008704032748937607,-0.011688086204230785,-0.015135841444134712,-0.999779224395752
278529.125,-0.0016336310654878616,0.007660307921469212,-0.020089108496904373,0.00774441659450531,-0.02221466414630413,1.001273512840271,-0.1233624815940857,-0.1499757617712021,0.16504903137683868,20,0.0,0.0,163,-0.03237878158688545,-0.009457003325223923,0.14883682131767273,0.008893268182873726,-0.011504242196679115,-0.01504663098603487,-0.99978107213974
278531.116,-0.0016325722681358457,0.007837736047804356,-0.010291125625371933,0.007857988588511944,-0.02268136851489544,1.0011380910873413,0.027355752885341644,-0.07712791860103607,0.03602265939116478,20,0.0,0.0,163,-0.03237878158688545,-0.009457003325223923,0.14883682131767273,0.008893268182873726,-0.011504242196679115,-0.01504663098603487,-0.99978107213974
278533.211,-0.0016325722681358457,0.007837736047804356,-0.010291125625371933,0.007326771039515734,-0.022944767028093338,1.0010944604873657,0.038508813828229904,-0.12792880833148956,-0.08274774253368378,20,0.0,0.0,163,-0.03237878158688545,-0.009457003325223923,0.14883682131767273,0.008893268182873726,-0.011504242196679115,-0.01504663098603487,-0.99978107213974
278535.068,-0.0016325722681358457,0.007837736047804356,-0.010291125625371933,0.006443156395107508,-0.0234953835606575,1.0011714696884155,-0.03625616058707237,-0.18033276498317719,-0.2382902354001999,20,0.0,0.0,163,-0.03248012065887451,-0.00926155224442482,0.1491234302520752,0.009316764771938324,-0.011319337412714958,-0.015038244426250458,-0.999779462814331
278537.055,-0.001976964296773076,0.009708642028272152,0.0009045141632668674,0.005739208776503801,-0.02440822124481201,1.0013309717178345,-0.11523794382810593,-0.1435851901769638,-0.29815518856048584,20,0.0,0.0,163,-0.03248012065887451,-0.00926155224442482,0.1491234302520752,0.009316764771938324,-0.011319337412714958,-0.015038244426250458,-0.999779462814331
278539.041,-0.001976964296773076,0.009708642028272152,0.0009045141632668674,0.005436081439256668,-0.025116724893450737,1.0012544393539429,-0.14840906858444214,-0.18441647291183472,-0.27171745896339417,20,0.0,0.0,163,-0.03248012065887451,-0.00926155224442482,0.1491234302520752,0.009316764771938324,-0.011319337412714958,-0.015038244426250458,-0.999779462814331
278541.012,-0.001976964296773076,0.009708642028272152,0.0009045141632668674,0.005504745990037918,-0.025317363440990448,1.0011427402496338,-0.07390803843736649,-0.30173584818840027,-0.3477512001991272,20,0.0,0.0,163,-0.03237494081258774,-0.009493586607277393,0.14883260428905487,0.008763058111071587,-0.01148301176726818,-0.015185120515525341,-0.9997804164886475
278543.352,-0.00197534984908998,0.009881727397441864,0.011598551645874977,0.005633425433188677,-0.024945927783846855,1.0008386373519897,-0.07746707648038864,-0.3158697187900543,-0.38251614570617676,20,0.0,0.0,163,-0.03237494081258774,-0.009493586607277393,0.14883260428905487,0.008763058111071587,-0.01148301176726818,-0.015185120515525341,-0.9997804164886475
278544.992,-0.0021323065739125013,0.010739159770309925,0.011690249666571617,0.0044270711950957775,-0.02379526197910309,1.0003834962844849,-0.13759060204029083,-0.07850117981433868,-0.2783924639225006,20,0.0,0.0,163,-0.03237494081258774,-0.009493586607277393,0.14883260428905487,0.008763058111071587,-0.01148301176726818,-0.015185120515525341,-0.9997804164886475
278546.956,-0.0021323065739125013,0.010739159770309925,0.011690249666571617,-0.002801683032885194,-0.022699620574712753,1.0008678436279297,-0.14617455005645752,-0.23652665317058563,-0.09924714267253876,20,0.0,0.0,163,-0.03237174451351166,-0.009491822682321072,0.14882947504520416,0.008802814409136772,-0.011505364440381527,-0.01515584159642458,-0.9997801780700684
278548.943,-0.0019651749171316624,0.01029443833976984,-0.01752709597349167,-0.006714722607284784,-0.024374961853027344,1.0016480684280396,-0.21045172214508057,-0.7941921949386597,-0.8936168551445007,20,0.0,0.0,163,-0.03237174451351166,-0.009491822682321072,0.14882947504520416,0.008802814409136772,-0.011505364440381527,-0.01515584159642458,-0.9997801780700684
278550.927,-0.0019651749171316624,0.01029443833976984,-0.01752709597349167,-0.0003198585764039308,-0.020314399152994156,1.0024914741516113,-0.4786897897720337,-0.8934279084205627,-3.080679416656494,20,0.0,0.0,163,-0.03240643069148064,-0.009508895687758923,0.14882247149944305,0.008726067841053009,-0.011526958085596561,-0.015189353376626968,-0.9997801184654236
278553.018,-0.001965998439118266,0.010461476631462574,-0.007911543361842632,0.0063888984732329845,-0.01164819486439228,1.0006227493286133,-0.9982467889785767,-2.1987075805664062,-6.082364082336426,20,0.0,0.0,163,-0.03240643069148064,-0.009508895687758923,0.14882247149944305,0.008726067841053009,-0.011526958085596561,-0.015189353376626968,-0.9997801184654236
278554.882,-0.0022828246001154184,0.012063847854733467,-0.007784515153616667,0.01974555104970932,-0.009278841316699982,0.9987258911132812,-1.23015558719635,-3.7562360763549805,-10.310090065002441,20,0.0,0.0,163,-0.03240643069148064,-0.009508895687758923,0.14882247149944305,0.008726067841053009,-0.011526958085596561,-0.015189353376626968,-0.9997801184654236
278556.872,-0.0022828246001154184,0.012063847854733467,-0.007784515153616667,0.04119430109858513,-0.0010923378868028522,0.9925777316093445,-1.1473056077957153,-1.0986584424972534,-7.748424053192139,20,0.0,0.0,163,-0.032376643270254135,-0.009467186406254768,0.14887680113315582,0.008752536959946156,-0.011561313644051552,-0.015050365589559078,-0.999781608581543
278558.844,-0.0022836492862552404,0.012241974472999573,0.0030953281093388796,0.04038076847791672,0.0037935636937618256,0.9894311428070068,-0.2613532543182373,2.6690268516540527,6.292790412902832,20,0.0,0.0,163,-0.032376643270254135,-0.009467186406254768,0.14887680113315582,0.008752536959946156,-0.011561313644051552,-0.015050365589559078,-0.999781608581543
278560.836,-0.0022836492862552404,0.012241974472999573,0.0030953281093388796,0.011906059458851814,-0.007216956466436386,0.9913374185562134,1.0850895643234253,0.3118971586227417,19.751876831054688,20,0.0,0.0,163,-0.032376643270254135,-0.009467186406254768,0.14887680113315582,0.008752536959946156,-0.011561313644051552,-0.015050365589559078,-0.999781608581543
278563.17,-0.0022919713519513607,0.012443053536117077,0.013700312934815884,-0.016960687935352325,-0.022823331877589226,0.9939703941345215,1.4174007177352905,-4.7374982833862305,20.87554359436035,20,0.0,0.0,163,-0.03260684385895729,-0.00914590060710907,0.14928606152534485,0.009639901109039783,-0.010954526253044605,-0.015163869597017765,-0.9997785091400146
278564.789,-0.0025978703051805496,0.014008567668497562,0.013005966320633888,-0.024879692122340202,-0.03133751451969147,0.9983108043670654,0.6361684203147888,-2.56836199760437,11.52246379852295,20,0.0,0.0,163,-0.03260684385895729,-0.00914590060710907,0.14928606152534485,0.009639901109039783,-0.010954526253044605,-0.015163869597017765,-0.9997785091400146
278566.779,-0.0035229348577558994,0.01284575555473566,0.0130535289645195,-0.013459035195410252,-0.032736487686634064,1.0030170679092407,-0.9626821875572205,4.260568618774414,-0.7148775458335876,20,0.0,0.0,163,-0.03260684385895729,-0.00914590060710907,0.14928606152534485,0.009639901109039783,-0.010954526253044605,-0.015163869597017765,-0.9997785091400146
278568.751,-0.003370933700352907,0.012385804206132889,-0.0165241826325655,0.007729436736553907,-0.03732604160904884,1.005351185798645,-2.101048469543457,4.9435648918151855,-13.195965766906738,20,0.0,0.0,163,-0.03262656182050705,-0.009171350859105587,0.14929552376270294,0.009485574439167976,-0.011025514453649521,-0.015143210999667645,-0.9997796416282654
278570.732,-0.003370933700352907,0.012385804206132889,-0.0165241826325655,0.022945603355765343,-0.042054589837789536,1.0051299333572388,-2.117098808288574,-0.46201759576797485,-20.03091049194336,20,0.0,0.0,163,-0.03262656182050705,-0.009171350859105587,0.14929552376270294,0.009485574439167976,-0.011025514453649521,-0.015143210999667645,-0.9997796416282654
278572.831,-0.003370933700352907,0.012385804206132889,-0.0165241826325655,0.01802978292107582,-0.03475179895758629,1.002046823501587,-1.4910250902175903,-4.0698628425598145,-14.10747241973877,20,0.0,0.0,163,-0.0323684997856617,-0.009473147802054882,0.1488196849822998,0.008816039189696312,-0.011554251424968243,-0.015123988501727581,-0.9997800588607788
278574.709,-0.003718803869560361,0.014257480390369892,-0.006698672194033861,-0.003962147049605846,-0.02173527143895626,0.999718427658081,-0.4972290098667145,-2.937124013900757,0.5386760830879211,20,0.0,0.0,163,-0.0323684997856617,-0.009473147802054882,0.1488196849822998,0.008816039189696312,-0.011554251424968243,-0.015123988501727581,-0.9997800588607788
278576.68,-0.003718803869560361,0.014257480390369892,-0.006698672194033861,-0.024043496698141098,-0.017427433282136917,0.9988212585449219,0.40580400824546814,0.07728683948516846,10.249194145202637,20,0.0,0.0,163,-0.0323684997856617,-0.009473147802054882,0.1488196849822998,0.008816039189696312,-0.011554251424968243,-0.015123988501727581,-0.9997800588607788
278578.656,-0.003718803869560361,0.014257480390369892,-0.006698672194033861,-0.024860434234142303,-0.025365712121129036,1.0006097555160522,0.5808003544807434,2.5760748386383057,6.579668045043945,20,0.0,0.0,163,-0.03234318643808365,-0.009482312016189098,0.14885938167572021,0.00875123217701912,-0.011651757173240185,-0.01515095867216587,-0.9997790455818176
278580.638,-0.0037102880887687206,0.01443214900791645,0.004317617975175381,-0.0034078657627105713,-0.03647102415561676,1.0022894144058228,0.1420275866985321,2.4499616622924805,-3.5537948608398438,20,0.0,0.0,163,-0.03234318643808365,-0.009482312016189098,0.14885938167572021,0.00875123217701912,-0.011651757173240185,-0.01515095867216587,-0.9997790455818176
278582.983,-0.0037102880887687206,0.01443214900791645,0.004317617975175381,0.02718184143304825,-0.042952850461006165,1.0029335021972656,-0.3104247748851776,0.23034566640853882,-7.806098937988281,20,0.0,0.0,163,-0.03234318643808365,-0.009482312016189098,0.14885938167572021,0.00875123217701912,-0.011651757173240185,-0.01515095867216587,-0.9997790455818176
278584.606,-0.0037102880887687206,0.01443214900791645,0.004317617975175381,0.04806108772754669,-0.041729237884283066,1.0009410381317139,-0.3643632233142853,0.07081488519906998,0.3987520933151245,20,0.0,0.0,163,-0.032352276146411896,-0.00943138636648655,0.14880670607089996,0.00889157596975565,-0.011548230424523354,-0.015068643726408482,-0.9997802376747131
278586.582,-0.003669267985969782,0.015037387609481812,-0.020753799006342888,0.05294717848300934,-0.035642798990011215,0.9971732497215271,0.0013449278194457293,2.386625051498413,14.32664966583252,20,0.0,0.0,163,-0.032352276146411896,-0.00943138636648655,0.14880670607089996,0.00889157596975565,-0.011548230424523354,-0.015068643726408482,-0.9997802376747131
278588.572,-0.003669267985969782,0.015037387609481812,-0.020753799006342888,0.04006192460656166,-0.026873072609305382,0.9940161108970642,0.6592584848403931,2.0573642253875732,20.976930618286133,20,0.0,0.0,163,-0.032352276146411896,-0.00943138636648655,0.14880670607089996,0.00889157596975565,-0.011548230424523354,-0.015068643726408482,-0.9997802376747131
278590.543,-0.003669267985969782,0.015037387609481812,-0.020753799006342888,0.012152345851063728,-0.02034818008542061,0.9921913743019104,1.1617176532745361,-2.109311819076538,16.221460342407227,20,0.0,0.0,163,-0.03257988765835762,-0.009141793474555016,0.1492409110069275,0.009492750279605389,-0.011053384281694889,-0.015121587552130222,-0.9997795820236206
278592.643,-0.0036750680301338434,0.015243368223309517,-0.00995193887501955,-0.012660413980484009,-0.01887384243309498,0.9932928681373596,1.3422163724899292,-2.8875553607940674,7.47292947769165,20,0.0,0.0,163,-0.03257988765835762,-0.009141793474555016,0.1492409110069275,0.009492750279605389,-0.011053384281694889,-0.015121587552130222,-0.9997795820236206
278594.514,-0.0036750680301338434,0.015243368223309517,-0.00995193887501955,-0.03536973148584366,-0.02062258869409561,0.9958609342575073,1.170861840248108,0.9333661794662476,3.390608549118042,20,0.0,0.0,163,-0.03256019577383995,-0.009187460877001286,0.14924384653568268,0.009387075901031494,-0.011175709776580334,-0.015056363306939602,-0.9997801184654236
278596.488,-0.00397226307541132,0.01694435253739357,1.0525660400162451e-05,-0.06703068315982819,-0.03250229358673096,1.0013591051101685,1.0389539003372192,1.3369479179382324,1.6962252855300903,20,0.0,0.0,163,-0.03256019577383995,-0.009187460877001286,0.14924384653568268,0.009387075901031494,-0.011175709776580334,-0.015056363306939602,-0.9997801184654236
278598.469,-0.00397226307541132,0.01694435253739357,1.0525660400162451e-05,-0.07188931107521057,-0.053641993552446365,1.0053906440734863,0.7435944080352783,-2.7627508640289307,-6.155167579650879,20,0.0,0.0,163,-0.03256019577383995,-0.009187460877001286,0.14924384653568268,0.009387075901031494,-0.011175709776580334,-0.015056363306939602,-0.9997801184654236
278600.459,-0.00397226307541132,0.01694435253739357,1.0525660400162451e-05,-0.03816515579819679,-0.053701337426900864,1.005110502243042,0.01053305808454752,-2.9668891429901123,-17.768190383911133,20,0.0,0.0,163,-0.032585687935352325,-0.009180042892694473,0.14927047491073608,0.009518609382212162,-0.011210410855710506,-0.015137969516217709,-0.9997773170471191
278602.798,-0.003977662418037653,0.01714404486119747,0.01191416010260582,-0.008691293187439442,-0.060003895312547684,1.006075382232666,-0.39300981163978577,1.7141937017440796,-26.549747467041016,20,0.0,0.0,163,-0.032585687935352325,-0.009180042892694473,0.14927047491073608,0.009518609382212162,-0.011210410855710506,-0.015137969516217709,-0.9997773170471191
278604.417,-0.003977662418037653,0.01714404486119747,0.01191416010260582,0.018368296325206757,-0.1151469424366951,1.0145059823989868,1.0483311414718628,3.44286847114563,-35.630638122558594,20,0.0,0.0,163,-0.032585687935352325,-0.009180042892694473,0.14927047491073608,0.009518609382212162,-0.011210410855710506,-0.015137969516217709,-0.9997773170471191
278606.402,-0.003977662418037653,0.01714404486119747,0.01191416010260582,0.07068593055009842,-0.16839736700057983,1.0181043148040771,4.417715549468994,0.14335517585277557,-31.453969955444336,20,0.0,0.0,163,-0.032585617154836655,-0.00916451495140791,0.149301216006279,0.00953089352697134,-0.011088994331657887,-0.015138264745473862,-0.9997785091400146
278608.375,-0.00186888687312603,0.01697843335568905,-0.015040891245007515,0.09949487447738647,-0.1835479587316513,1.017358660697937,9.181427001953125,-2.5890867710113525,5.379680156707764,20,0.0,0.0,163,-0.032585617154836655,-0.00916451495140791,0.149301216006279,0.00953089352697134,-0.011088994331657887,-0.015138264745473862,-0.9997785091400146
278610.367,-0.00186888687312603,0.01697843335568905,-0.015040891245007515,0.0662725642323494,-0.20572595298290253,1.0190765857696533,13.83449649810791,-2.1069228649139404,49.38943099975586,20,0.0,0.0,163,-0.032585617154836655,-0.00916451495140791,0.149301216006279,0.00953089352697134,-0.011088994331657887,-0.015138264745473862,-0.9997785091400146
278612.461,-0.00186888687312603,0.01697843335568905,-0.015040891245007515,0.007112465333193541,-0.25207290053367615,1.0261211395263672,16.15106964111328,-0.456087589263916,52.77907180786133,20,0.0,0.0,163,-0.03231963887810707,-0.009579557925462723,0.1488204449415207,0.008430806919932365,-0.011682311072945595,-0.015146270394325256,-0.9997815489768982
278614.319,-0.0018863892182707787,0.017148572951555252,-0.003543554339557886,-0.021117545664310455,-0.2758403718471527,1.0215059518814087,16.546653747558594,2.1615872383117676,16.969926834106445,20,0.0,0.0,163,-0.03231963887810707,-0.009579557925462723,0.1488204449415207,0.008430806919932365,-0.011682311072945595,-0.015146270394325256,-0.9997815489768982
278616.31,-0.0018863892182707787,0.017148572951555252,-0.003543554339557886,-0.013605376705527306,-0.25881460309028625,1.0079008340835571,17.142860412597656,4.615048408508301,-11.020267486572266,20,0.0,0.0,163,-0.03231963887810707,-0.009579557925462723,0.1488204449415207,0.008430806919932365,-0.011682311072945595,-0.015146270394325256,-0.9997815489768982
278618.284,-0.0018863892182707787,0.017148572951555252,-0.003543554339557886,0.004826814401894808,-0.21392501890659332,0.9898767471313477,18.148300170898438,1.8966847658157349,-6.086743354797363,20,0.0,0.0,163,-0.032338593155145645,-0.009746416471898556,0.148855060338974,0.007885903120040894,-0.011692292988300323,-0.015118801966309547,-0.9997863173484802
278620.262,-0.002282840898260474,0.019025549292564392,0.00918181985616684,0.018760934472084045,-0.1637769639492035,0.9778682589530945,19.22007179260254,-1.6485289335250854,13.342056274414062,20,0.0,0.0,163,-0.032338593155145645,-0.009746416471898556,0.148855060338974,0.007885903120040894,-0.011692292988300323,-0.015118801966309547,-0.9997863173484802
278622.598,-0.002282840898260474,0.019025549292564392,0.00918181985616684,0.029239997267723083,-0.1435731202363968,0.9827685952186584,21.594762802124023,2.276365280151367,23.203968048095703,20,0.0,0.0,163,-0.032602813094854355,-0.009642653167247772,0.14919798076152802,0.008174574933946133,-0.011237484402954578,-0.01527225598692894,-0.9997867941856384
278624.226,-0.0023102557752281427,0.019195713102817535,0.02204396203160286,0.036363210529088974,-0.16701006889343262,1.0092146396636963,27.027544021606445,5.49868106842041,20.907285690307617,20,0.0,0.0,163,-0.032602813094854355,-0.009642653167247772,0.14919798076152802,0.008174574933946133,-0.011237484402954578,-0.01527225598692894,-0.9997867941856384
278626.222,-0.0023102557752281427,0.019195713102817535,0.02204396203160286,0.03341630473732948,-0.23464927077293396,1.0554192066192627,35.38176727294922,-3.7126684188842773,16.428665161132812,20,0.0,0.0,163,-0.032602813094854355,-0.009642653167247772,0.14919798076152802,0.008174574933946133,-0.011237484402954578,-0.01527225598692894,-0.9997867941856384
278628.186,-0.0023102557752281427,0.019195713102817535,0.02204396203160286,0.0034769263584166765,-0.36785414814949036,1.1160889863967896,44.56387710571289,-11.152729034423828,19.349319458007812,20,0.0,0.0,163,-0.03237200528383255,-0.01004594936966896,0.14938589930534363,0.006987151689827442,-0.011794622987508774,-0.015392649918794632,-0.9997875690460205
278630.169,-0.0008303886861540377,0.009819338098168373,-0.0063177249394357204,-0.05166033282876015,-0.5603045225143433,1.1737674474716187,52.877498626708984,-2.308012008666992,29.48895263671875,20,0.0,0.0,163,-0.03237200528383255,-0.01004594936966896,0.14938589930534363,0.006987151689827442,-0.011794622987508774,-0.015392649918794632,-0.9997875690460205
278632.285,-0.0008303886861540377,0.009819338098168373,-0.0063177249394357204,-0.07057004421949387,-0.724153459072113,1.202941656112671,58.6569938659668,5.610789775848389,34.09526824951172,20,0.0,0.0,163,-0.03237200528383255,-0.01004594936966896,0.14938589930534363,0.006987151689827442,-0.011794622987508774,-0.015392649918794632,-0.9997875690460205
278634.131,-0.0008303886861540377,0.009819338098168373,-0.0063177249394357204,-0.009134642779827118,-0.7868844866752625,1.1968992948532104,61.928714752197266,-1.3177660703659058,27.665254592895508,20,0.0,0.0,163,-0.03244476392865181,-0.01052108034491539,0.14989228546619415,0.00375265721231699,-0.013117651455104351,-0.015334445983171463,-0.9997894167900085
278636.113,-0.0008548225159756839,0.01005020085722208,0.0056388890370726585,0.06042647361755371,-0.7730841040611267,1.1637766361236572,63.09050750732422,-4.596487045288086,25.87040138244629,20,0.0,0.0,163,-0.03244476392865181,-0.01052108034491539,0.14989228546619415,0.00375265721231699,-0.013117651455104351,-0.015334445983171463,-0.9997894167900085
278638.103,-0.0008548225159756839,0.01005020085722208,0.0056388890370726585,0.022533826529979706,-0.7538236379623413,1.1198289394378662,60.74481964111328,7.318149566650391,20.95639419555664,20,0.0,0.0,163,-0.03244476392865181,-0.01052108034491539,0.14989228546619415,0.00375265721231699,-0.013117651455104351,-0.015334445983171463,-0.9997894167900085
278640.074,-0.0008548225159756839,0.01005020085722208,0.0056388890370726585,-0.11236876249313354,-0.7281621098518372,1.0538365840911865,57.2452278137207,16.154579162597656,-14.491479873657227,20,0.0,0.0,163,-0.03245670720934868,-0.011062713339924812,0.15019141137599945,0.001564728794619441,-0.012872643768787384,-0.015243381261825562,-0.9997997879981995
278642.411,-0.0012728518340736628,0.011380565352737904,0.03611225634813309,-0.162602961063385,-0.6220839023590088,0.939170777797699,56.14488983154297,9.320515632629395,-56.31428146362305,20,0.0,0.0,163,-0.03245670720934868,-0.011062713339924812,0.15019141137599945,0.001564728794619441,-0.012872643768787384,-0.015243381261825562,-0.9997997879981995
278644.038,-0.0012728518340736628,0.011380565352737904,0.03611225634813309,-0.06714056432247162,-0.43748143315315247,0.8326454758644104,57.552425384521484,-2.549666404724121,-52.04844284057617,20,0.0,0.0,163,-0.032236985862255096,-0.012088627554476261,0.14913345873355865,0.0005184001638554037,-0.01253360603004694,-0.015948964282870293,-0.9997941851615906
278646.024,-0.00129135197494179,0.01149488240480423,0.049072280526161194,0.013963907025754452,-0.31251370906829834,0.7933366894721985,58.73554611206055,-7.326343059539795,-4.5878472328186035,20,0.0,1.0,163,-0.032236985862255096,-0.012088627554476261,0.14913345873355865,0.0005184001638554037,-0.01253360603004694,-0.015948964282870293,-0.9997941851615906
278648.0,-0.003738550003618002,-0.004932515323162079,0.006873485166579485,-0.07710917294025421,-0.30789992213249207,0.8360161781311035,56.03901672363281,-4.0318450927734375,36.39055252075195,20,0.0,1.0,163,-0.032236985862255096,-0.012088627554476261,0.14913345873355865,0.0005184001638554037,-0.01253360603004694,-0.015948964282870293,-0.9997941851615906
278649.989,-0.003738550003618002,-0.004932515323162079,0.006873485166579485,-0.253487229347229,-0.30052921175956726,0.9487982392311096,46.13431167602539,1.9268854856491089,33.10615921020508,20,0.0,1.0,163,-0.03182904049754143,-0.013396987691521645,0.14997871220111847,-0.003779881400987506,-0.015175770036876202,-0.016676517203450203,-0.9997386336326599
278652.083,-0.003980220761150122,-0.004403224214911461,0.009816567413508892,-0.30958014726638794,-0.1640574038028717,1.1099271774291992,30.857202529907227,4.45443058013916,-22.459062576293945,20,0.0,1.0,163,-0.03182904049754143,-0.013396987691521645,0.14997871220111847,-0.003779881400987506,-0.015175770036876202,-0.016676517203450203,-0.9997386336326599
278653.944,-0.003980220761150122,-0.004403224214911461,0.009816567413508892,-0.2326892912387848,0.1663747876882553,1.3668029308319092,11.179130554199219,-0.3047681748867035,-107.1206283569336,20,0.0,1.0,163,-0.03182904049754143,-0.013396987691521645,0.14997871220111847,-0.003779881400987506,-0.015175770036876202,-0.016676517203450203,-0.9997386336326599
278655.924,-0.003980220761150122,-0.004403224214911461,0.009816567413508892,-0.11356956511735916,0.5746074318885803,1.7522028684616089,-4.6394877433776855,-6.7525954246521,-154.84495544433594,20,0.0,1.0,163,-0.03164331987500191,-0.014368600212037563,0.15015552937984467,-0.0056631178595125675,-0.0159356277436018,-0.016676878556609154,-0.9997178912162781
278657.906,-0.003945159260183573,-0.004266455303877592,0.021888088434934616,-0.06196970120072365,0.7902277708053589,2.3188364505767822,-1.0776889324188232,-0.027875322848558426,-87.79765319824219,20,0.0,1.0,163,-0.03164331987500191,-0.014368600212037563,0.15015552937984467,-0.0056631178595125675,-0.0159356277436018,-0.016676878556609154,-0.9997178912162781
278659.897,-0.00419146753847599,-0.006022319197654724,0.053008683025836945,-0.09372560679912567,0.8717569708824158,2.9669320583343506,19.021520614624023,12.345316886901855,52.93111801147461,20,0.0,1.0,163,-0.03164331987500191,-0.014368600212037563,0.15015552937984467,-0.0056631178595125675,-0.0159356277436018,-0.016676878556609154,-0.9997178912162781
278662.219,-0.00419146753847599,-0.006022319197654724,0.053008683025836945,-0.028568778187036514,0.9177581071853638,3.432321071624756,55.348388671875,9.22428035736084,130.73223876953125,20,0.0,1.0,163,-0.031984031200408936,-0.015167998149991035,0.15026921033859253,-0.004297889769077301,-0.012331457808613777,-0.017468413338065147,-0.9997621774673462
278663.85,-0.004171436186879873,-0.005924148950725794,0.06662821024656296,0.14109927415847778,0.5746417045593262,3.5030229091644287,116.71513366699219,-2.500800848007202,144.72108459472656,20,0.0,1.0,163,-0.031984031200408936,-0.015167998149991035,0.15026921033859253,-0.004297889769077301,-0.012331457808613777,-0.017468413338065147,-0.9997621774673462
278665.835,-0.004171436186879873,-0.005924148950725794,0.06662821024656296,0.057646702975034714,-0.3840266764163971,3.003892421722412,182.26565551757812,1.1389386653900146,156.44581604003906,20,0.0,1.0,163,-0.031961120665073395,-0.016312340274453163,0.15134167671203613,-0.008394195698201656,-0.01223360188305378,-0.01818329468369484,-0.9997246265411377
278667.813,-0.004171436186879873,-0.005924148950725794,0.06662821024656296,-0.08438955247402191,-0.9714539051055908,2.124032497406006,205.91336059570312,6.365755558013916,91.5511703491211,20,-1.0,0.0,162,-0.031961120665073395,-0.016312340274453163,0.15134167671203613,-0.008394195698201656,-0.01223360188305378,-0.01818329468369484,-0.9997246265411377
278669.794,-0.0042511713691055775,-0.06847649812698364,0.2490062415599823,-0.008376269601285458,-0.36702340841293335,1.25733482837677,170.10093688964844,-8.432032585144043,-103.28667449951172,20,-1.0,0.0,162,-0.031961120665073395,-0.016312340274453163,0.15134167671203613,-0.008394195698201656,-0.01223360188305378,-0.01818329468369484,-0.9997246265411377
278671.895,-0.0042511713691055775,-0.06847649812698364,0.2490062415599823,0.23712699115276337,0.814982533454895,0.6089552640914917,124.40540313720703,-19.8895206451416,-251.93267822265625,20,-1.0,0.0,162,-0.032363083213567734,-0.017212577164173126,0.1528441309928894,-0.0213853120803833,-0.013935628347098827,-0.01606457307934761,-0.9995450973510742
278673.761,-0.004242689348757267,-0.067832350730896,0.2611986994743347,0.33124426007270813,1.5430541038513184,0.4517948627471924,106.48794555664062,-11.112386703491211,-151.9734344482422,20,-1.0,0.0,162,-0.032363083213567734,-0.017212577164173126,0.1528441309928894,-0.0213853120803833,-0.013935628347098827,-0.01606457307934761,-0.9995450973510742
278675.737,-0.004242689348757267,-0.067832350730896,0.2611986994743347,0.14435529708862305,1.6307004690170288,0.805938184261322,90.48912048339844,-1.8907045125961304,52.500221252441406,20,-1.0,0.0,162,-0.032363083213567734,-0.017212577164173126,0.1528441309928894,-0.0213853120803833,-0.013935628347098827,-0.01606457307934761,-0.9995450973510742
278677.731,-0.004242689348757267,-0.067832350730896,0.2611986994743347,-0.027886198833584785,1.419677734375,1.2959452867507935,60.23812484741211,-11.506824493408203,89.66400909423828,20,-1.0,0.0,162,-0.03260507434606552,-0.017833653837442398,0.15317314863204956,-0.02493336610496044,-0.012432843446731567,-0.014977382495999336,-0.9994996190071106
278679.71,-0.0039969552308321,-0.06832858175039291,0.260772168636322,0.021376071497797966,1.2567312717437744,1.607527494430542,35.25264358520508,-28.46552848815918,12.967497825622559,20,-1.0,0.0,162,-0.03260507434606552,-0.017833653837442398,0.15317314863204956,-0.02493336610496044,-0.012432843446731567,-0.014977382495999336,-0.9994996190071106
278682.039,-0.0039969552308321,-0.06832858175039291,0.260772168636322,0.09567680954933167,1.148073434829712,1.814633846282959,27.171405792236328,-38.62541961669922,5.312315464019775,20,-1.0,0.0,162,-0.03236691281199455,-0.017694659531116486,0.1551845222711563,-0.025867395102977753,-0.01101815328001976,-0.013415022753179073,-0.999514639377594
278683.669,-0.003990267403423786,-0.06765730679035187,0.2740630507469177,0.08927815407514572,0.9349172115325928,2.007132053375244,22.511524200439453,-44.04130554199219,28.832332611083984,20,-1.0,0.0,162,-0.03236691281199455,-0.017694659531116486,0.1551845222711563,-0.025867395102977753,-0.01101815328001976,-0.013415022753179073,-0.999514639377594
278685.656,-0.003990267403423786,-0.06765730679035187,0.2740630507469177,0.06272268295288086,0.7176741361618042,2.274507522583008,3.168858051300049,-45.11683654785156,-21.912872314453125,20,-1.0,0.0,162,-0.03236691281199455,-0.017694659531116486,0.1551845222711563,-0.025867395102977753,-0.01101815328001976,-0.013415022753179073,-0.999514639377594
278687.641,-0.003990267403423786,-0.06765730679035187,0.2740630507469177,0.002002476016059518,0.9965019226074219,2.6316113471984863,-42.31655502319336,-37.7498664855957,-77.61727905273438,20,-3.0,-13.0,159,-0.03253534436225891,-0.0172189399600029,0.15631496906280518,-0.030535420402884483,-0.010295979678630829,-0.013259531930088997,-0.9993926882743835
278689.607,-0.003990267403423786,-0.06765730679035187,0.2740630507469177,-0.09752104431390762,1.9424591064453125,2.676344871520996,-102.27885437011719,-28.943885803222656,-66.19482421875,20,-3.0,-13.0,159,-0.03253534436225891,-0.0172189399600029,0.15631496906280518,-0.030535420402884483,-0.010295979678630829,-0.013259531930088997,-0.9993926882743835
278691.707,-0.03089555725455284,-0.08056693524122238,0.30516019463539124,-0.035187024623155594,2.6662516593933105,2.199357032775879,-117.9429931640625,-26.29334259033203,8.912257194519043,20,-3.0,-13.0,159,-0.03253534436225891,-0.0172189399600029,0.15631496906280518,-0.030535420402884483,-0.010295979678630829,-0.013259531930088997,-0.9993926882743835
278693.571,-0.03089555725455284,-0.08056693524122238,0.30516019463539124,0.06088361144065857,2.1548855304718018,1.418668270111084,-63.45232009887695,-17.97919464111328,186.50978088378906,20,-3.0,-13.0,159,-0.03266789764165878,-0.017008749768137932,0.15950269997119904,-0.026676470413804054,-0.0071060494519770145,-0.01428860705345869,-0.9995167851448059
278695.552,-0.030700894072651863,-0.080079585313797,0.3170620799064636,-0.02811615914106369,0.475253701210022,0.7007855176925659,12.94544792175293,-1.375492811203003,320.21820068359375,20,-3.0,-13.0,159,-0.03266789764165878,-0.017008749768137932,0.15950269997119904,-0.026676470413804054,-0.0071060494519770145,-0.01428860705345869,-0.9995167851448059
278697.534,-0.030700894072651863,-0.080079585313797,0.3170620799064636,-0.22097565233707428,-1.2181003093719482,0.23396191000938416,59.765316009521484,-5.283136367797852,175.69041442871094,20,-3.0,-13.0,159,-0.03266789764165878,-0.017008749768137932,0.15950269997119904,-0.026676470413804054,-0.0071060494519770145,-0.01428860705345869,-0.9995167851448059
278699.512,-0.03182101622223854,-0.09107276797294617,0.39563921093940735,-0.2830810546875,-1.8947139978408813,0.013137783855199814,76.00141143798828,-34.47522735595703,-153.63661193847656,20,-3.0,-13.0,159,-0.03302207216620445,-0.016886603087186813,0.16119635105133057,-0.018155688419938087,-0.005627068225294352,-0.01502133160829544,-0.999706506729126
278701.85,-0.03161919489502907,-0.0904918909072876,0.4088096022605896,-0.22580699622631073,-1.7286572456359863,0.1652473360300064,95.85721588134766,-54.751670837402344,-325.57708740234375,20,-3.0,-13.0,159,-0.03302207216620445,-0.016886603087186813,0.16119635105133057,-0.018155688419938087,-0.005627068225294352,-0.01502133160829544,-0.999706506729126
278703.477,-0.03161919489502907,-0.0904918909072876,0.4088096022605896,-0.24393805861473083,-1.505672574043274,0.48386651277542114,151.16734313964844,-42.85435104370117,-197.6402587890625,20,-3.0,-13.0,159,-0.03302207216620445,-0.016886603087186813,0.16119635105133057,-0.018155688419938087,-0.005627068225294352,-0.01502133160829544,-0.999706506729126
278705.463,-0.03161919489502907,-0.0904918909072876,0.4088096022605896,-0.27739623188972473,-1.472847580909729,0.5582564473152161,216.42689514160156,-20.961048126220703,26.366792678833008,20,-3.0,-13.0,159,-0.03349928557872772,-0.015625575557351112,0.1628277450799942,-0.03400154784321785,-0.004784734454005957,-0.017135372385382652,-0.9992634654045105
278707.446,-0.03143564239144325,-0.08996031433343887,0.42174798250198364,-0.12103487551212311,-1.2458187341690063,0.49535876512527466,213.75299072265625,-19.08521842956543,83.76061248779297,20,-3.0,-20.0,156,-0.03349928557872772,-0.015625575557351112,0.1628277450799942,-0.03400154784321785,-0.004784734454005957,-0.017135372385382652,-0.9992634654045105
278709.431,-0.037991441786289215,-0.15817879140377045,0.3106116056442261,0.15667104721069336,-0.9058308601379395,0.511079728603363,129.479248046875,-33.29232406616211,-12.045165061950684,22,-3.0,-20.0,156,-0.03349928557872772,-0.015625575557351112,0.1628277450799942,-0.03400154784321785,-0.004784734454005957,-0.017135372385382652,-0.9992634654045105
278711.52,-0.03783370554447174,-0.15662530064582825,0.3220241963863373,0.22207719087600708,-0.8900219798088074,0.7464940547943115,24.60015869140625,-45.97550582885742,-65.19808959960938,22,-3.0,-20.0,156,-0.03344986215233803,-0.014701022766530514,0.16592592000961304,-0.041573114693164825,-0.004276272375136614,-0.014067879877984524,-0.9990272521972656
278713.383,-0.03783370554447174,-0.15662530064582825,0.3220241963863373,-0.03381891921162605,-0.9681562781333923,1.2529062032699585,-68.31608581542969,-50.83509826660156,-60.46045684814453,22,-3.0,-20.0,156,-0.03344986215233803,-0.014701022766530514,0.16592592000961304,-0.041573114693164825,-0.004276272375136614,-0.014067879877984524,-0.9990272521972656
278715.365,-0.03783370554447174,-0.15662530064582825,0.3220241963863373,-0.1978999674320221,-0.43588483333587646,1.9086323976516724,-152.72418212890625,-46.941253662109375,-108.34992980957031,22,-3.0,-20.0,156,-0.033480606973171234,-0.015776295214891434,0.16626489162445068,-0.04410630092024803,-0.002174966735765338,-0.02621912583708763,-0.9986804127693176
278717.347,-0.03767283260822296,-0.1552554965019226,0.33314090967178345,0.05387675762176514,0.5589498281478882,2.4164440631866455,-222.9313507080078,-41.011295318603516,-120.89923858642578,22,-3.0,-20.0,156,-0.033480606973171234,-0.015776295214891434,0.16626489162445068,-0.04410630092024803,-0.002174966735765338,-0.02621912583708763,-0.9986804127693176
278719.335,-0.038193002343177795,-0.16263112425804138,0.3390739858150482,0.1978888064622879,1.1273729801177979,2.664222002029419,-257.3916015625,-42.99290084838867,71.95867919921875,22,-3.0,-20.0,156,-0.033480606973171234,-0.015776295214891434,0.16626489162445068,-0.04410630092024803,-0.002174966735765338,-0.02621912583708763,-0.9986804127693176
278721.665,-0.038193002343177795,-0.16263112425804138,0.3390739858150482,0.01878535933792591,0.8286758065223694,2.514667272567749,-251.91525268554688,-49.57815170288086,269.78314208984375,22,-3.0,-20.0,156,-0.03302513435482979,-0.01683943346142769,0.16940385103225708,-0.02898898907005787,-0.0003398883272893727,-0.029597757384181023,-0.9991413950920105
278723.288,-0.03799862787127495,-0.16109399497509003,0.3515368402004242,-0.0753345713019371,-0.15106627345085144,1.8903794288635254,-212.76573181152344,-42.60467529296875,175.54412841796875,22,-3.0,-20.0,156,-0.03302513435482979,-0.01683943346142769,0.16940385103225708,-0.02898898907005787,-0.0003398883272893727,-0.029597757384181023,-0.9991413950920105
278725.281,-0.03799862787127495,-0.16109399497509003,0.3515368402004242,0.015996849164366722,-1.2577778100967407,1.1116111278533936,-153.1572265625,-26.86610984802246,-57.925628662109375,22,-3.0,-20.0,156,-0.03302513435482979,-0.01683943346142769,0.16940385103225708,-0.02898898907005787,-0.0003398883272893727,-0.029597757384181023,-0.9991413950920105
278727.253,-0.03799862787127495,-0.16109399497509003,0.3515368402004242,0.13096004724502563,-1.9191820621490479,0.6216130256652832,-97.65554809570312,-21.694168090820312,-164.5887908935547,22,-3.0,-20.0,156,-0.03392579406499863,-0.01827595755457878,0.17126542329788208,-0.013655622489750385,0.0016538676572963595,-0.013849621638655663,-0.9998094439506531
278729.231,-0.04696117341518402,-0.12450752407312393,0.38985753059387207,0.2939946949481964,-1.9545611143112183,0.6587759256362915,-61.651309967041016,-22.949155807495117,-193.70065307617188,27,-1.0,-1.0,155,-0.03392579406499863,-0.01827595755457878,0.17126542329788208,-0.013655622489750385,0.0016538676572963595,-0.013849621638655663,-0.9998094439506531
278731.33,-0.0510355643928051,-0.137437641620636,0.3914763927459717,0.42181769013404846,-1.5832242965698242,1.1499886512756348,-28.188018798828125,-14.90661907196045,-242.64700317382812,27,-1.0,-1.0,155,-0.03392579406499863,-0.01827595755457878,0.17126542329788208,-0.013655622489750385,0.0016538676572963595,-0.013849621638655663,-0.9998094439506531
278733.194,-0.0510355643928051,-0.137437641620636,0.3914763927459717,0.2903691530227661,-0.9289821982383728,1.7555582523345947,3.06608510017395,-3.5066466331481934,-224.66004943847656,27,-1.0,-1.0,155,-0.033871155232191086,-0.01868412084877491,0.17322726547718048,-0.01651458628475666,0.0027172076515853405,0.005601588170975447,-0.9998442530632019
278735.175,-0.05089998617768288,-0.13684329390525818,0.4023861587047577,0.05468842014670372,-0.2714618146419525,2.229130268096924,22.93521499633789,-6.324523448944092,-147.49423217773438,27,-1.0,-1.0,155,-0.033871155232191086,-0.01868412084877491,0.17322726547718048,-0.01651458628475666,0.0027172076515853405,0.005601588170975447,-0.9998442530632019
278737.166,-0.05089998617768288,-0.13684329390525818,0.4023861587047577,-0.160474956035614,0.05121328681707382,2.4109058380126953,15.957985877990723,-17.272310256958008,-51.329559326171875,27,-1.0,-1.0,155,-0.03321031853556633,-0.019189829006791115,0.17638267576694489,-0.016802489757537842,0.0018390557961538434,0.016213417053222656,-0.9997257590293884
278739.151,-0.056057173758745193,-0.1426992118358612,0.4832288324832916,-0.23597975075244904,0.15963537991046906,2.217188835144043,-40.30512237548828,-19.18008804321289,86.48086547851562,27,-1.0,-1.0,155,-0.03321031853556633,-0.019189829006791115,0.17638267576694489,-0.016802489757537842,0.0018390557961538434,0.016213417053222656,-0.9997257590293884
278741.463,-0.056057173758745193,-0.1426992118358612,0.4832288324832916,-0.08244636654853821,0.6038510799407959,1.7017282247543335,-129.06072998046875,-26.064594268798828,188.68923950195312,27,-1.0,-1.0,155,-0.03321031853556633,-0.019189829006791115,0.17638267576694489,-0.016802489757537842,0.0018390557961538434,0.016213417053222656,-0.9997257590293884
278743.1,-0.056057173758745193,-0.1426992118358612,0.4832288324832916,0.2031361609697342,1.5961871147155762,1.0840520858764648,-206.62521362304688,-41.80203628540039,204.06686401367188,27,-1.0,-1.0,155,-0.03271477669477463,-0.021368058398365974,0.17967206239700317,-0.02079133689403534,0.004550488665699959,-0.0038455806206911802,-0.9997661709785461
278745.081,-0.05585892125964165,-0.14230725169181824,0.4953634440898895,0.3670966327190399,2.571446657180786,0.6624433398246765,-236.83998107910156,-40.11566925048828,222.77676391601562,27,-1.0,-1.0,155,-0.03271477669477463,-0.021368058398365974,0.17967206239700317,-0.02079133689403534,0.004550488665699959,-0.0038455806206911802,-0.9997661709785461
278747.068,-0.05585892125964165,-0.14230725169181824,0.4953634440898895,0.25334009528160095,2.8180108070373535,0.5871500372886658,-229.74575805664062,-25.800861358642578,321.4706115722656,27,-1.0,-1.0,155,-0.03271477669477463,-0.021368058398365974,0.17967206239700317,-0.02079133689403534,0.004550488665699959,-0.0038455806206911802,-0.9997661709785461
278749.052,-0.05585892125964165,-0.14230725169181824,0.4953634440898895,0.05481604114174843,2.2604124546051025,0.8261387348175049,-212.19332885742188,-11.520744323730469,412.9778137207031,32,-9.0,-9.0,152,-0.03329835459589958,-0.020662957802414894,0.18183347582817078,0.0001648644101805985,0.007150433026254177,-0.032770492136478424,-0.9994373321533203
278751.151,-0.07751334458589554,-0.0835018903017044,0.5006991028785706,-0.02035483717918396,1.4362198114395142,1.1067633628845215,-199.54708862304688,1.8594383001327515,398.5711364746094,32,-9.0,-9.0,152,-0.03329835459589958,-0.020662957802414894,0.18183347582817078,0.0001648644101805985,0.007150433026254177,-0.032770492136478424,-0.9994373321533203
278753.006,-0.07751334458589554,-0.0835018903017044,0.5006991028785706,-0.11229570209980011,0.8278369307518005,1.379892110824585,-188.67996215820312,9.045238494873047,245.80274963378906,32,-9.0,-9.0,152,-0.03329835459589958,-0.020662957802414894,0.18183347582817078,0.0001648644101805985,0.007150433026254177,-0.032770492136478424,-0.9994373321533203
278754.987,-0.07751334458589554,-0.0835018903017044,0.5006991028785706,-0.2761341631412506,0.6493093967437744,1.6036463975906372,-167.35433959960938,0.5232452154159546,-21.620317459106445,32,-9.0,-9.0,152,-0.03305094689130783,-0.02068863809108734,0.1843377649784088,0.01281670667231083,0.006958899553865194,-0.0466487817466259,-0.9988049268722534
278756.968,-0.07729343324899673,-0.08395478129386902,0.5106807351112366,-0.27278247475624084,0.9721873998641968,1.589239239692688,-138.6632080078125,-19.063688278198242,-237.76719665527344,32,-9.0,-9.0,152,-0.03305094689130783,-0.02068863809108734,0.1843377649784088,0.01281670667231083,0.006958899553865194,-0.0466487817466259,-0.9988049268722534
278758.956,-0.08106110244989395,-0.08464877307415009,0.5343412160873413,-0.1363467425107956,1.4679540395736694,1.3298341035842896,-100.14736938476562,-21.116960525512695,-235.4128875732422,32,-9.0,-9.0,152,-0.03305094689130783,-0.02068863809108734,0.1843377649784088,0.01281670667231083,0.006958899553865194,-0.0466487817466259,-0.9988049268722534
278761.29,-0.08106110244989395,-0.08464877307415009,0.5343412160873413,-0.18505191802978516,1.5571942329406738,0.9106649160385132,-50.437984466552734,-4.460885047912598,-82.7823715209961,32,-9.0,-9.0,152,-0.033343423157930374,-0.019931867718696594,0.1877690553665161,0.0162481889128685,0.005477290600538254,-0.04041389748454094,-0.9990359544754028
278762.914,-0.08082851022481918,-0.08509747684001923,0.5453871488571167,-0.3563882112503052,1.0182912349700928,0.4310138523578644,-8.361945152282715,1.1525160074234009,19.02250099182129,32,-9.0,-9.0,152,-0.033343423157930374,-0.019931867718696594,0.1877690553665161,0.0162481889128685,0.005477290600538254,-0.04041389748454094,-0.9990359544754028
278764.903,-0.08082851022481918,-0.08509747684001923,0.5453871488571167,-0.3874422609806061,0.12401276081800461,0.1313878297805786,13.15285587310791,-14.04374885559082,-21.024805068969727,32,-9.0,-9.0,152,-0.033632442355155945,-0.019401708617806435,0.19101199507713318,0.01996232382953167,0.008935563266277313,-0.01837780885398388,-0.9995918869972229
278766.881,-0.08064579963684082,-0.08545848727226257,0.5564501285552979,-0.26903313398361206,-0.688700795173645,-0.06515859812498093,21.384958267211914,-25.19327163696289,-158.45266723632812,32,-9.0,-9.0,152,-0.033632442355155945,-0.019401708617806435,0.19101199507713318,0.01996232382953167,0.008935563266277313,-0.01837780885398388,-0.9995918869972229
278768.855,-0.08064579963684082,-0.08545848727226257,0.5564501285552979,-0.08907853066921234,-1.1238607168197632,-0.19383329153060913,32.39668655395508,-18.94738006591797,-279.85626220703125,43,-1.0,-4.0,149,-0.033632442355155945,-0.019401708617806435,0.19101199507713318,0.01996232382953167,0.008935563266277313,-0.01837780885398388,-0.9995918869972229
278770.954,-0.08559320867061615,-0.08022981137037277,0.44011184573173523,0.06848741322755814,-1.1750887632369995,-0.11943046003580093,55.42673873901367,-8.92834758758545,-229.80162048339844,43,-1.0,-4.0,149,-0.033620718866586685,-0.01855533942580223,0.19348187744617462,0.01710316352546215,0.009875780902802944,-0.0036186433862894773,-0.9997984170913696
278772.818,-0.08547107130289078,-0.0804453045129776,0.4505610466003418,0.1462022215127945,-1.0169851779937744,0.19310276210308075,83.7259521484375,-3.9036781787872314,2.0757193565368652,43,-1.0,-4.0,149,-0.033620718866586685,-0.01855533942580223,0.19348187744617462,0.01710316352546215,0.009875780902802944,-0.0036186433862894773,-0.9997984170913696
278774.799,-0.08547107130289078,-0.0804453045129776,0.4505610466003418,0.14459526538848877,-0.7927718162536621,0.7061262130737305,94.37406158447266,1.356306791305542,210.60040283203125,43,-1.0,-4.0,149,-0.033620718866586685,-0.01855533942580223,0.19348187744617462,0.01710316352546215,0.009875780902802944,-0.0036186433862894773,-0.9997984170913696
278776.774,-0.08547107130289078,-0.0804453045129776,0.4505610466003418,0.22922739386558533,-0.7788984179496765,1.2079464197158813,85.66897583007812,10.30471420288086,257.7325744628906,43,-1.0,-4.0,149,-0.033750832080841064,-0.018297353759407997,0.19575412571430206,0.009877684526145458,0.007557177450507879,-0.002765882993116975,-0.9999188184738159
278778.762,-0.0841040313243866,-0.07667253911495209,0.3897485136985779,0.24957649409770966,-1.1213241815567017,1.5026919841766357,68.67339324951172,18.715967178344727,233.13729858398438,43,-1.0,-4.0,149,-0.033750832080841064,-0.018297353759407997,0.19575412571430206,0.009877684526145458,0.007557177450507879,-0.002765882993116975,-0.9999188184738159
278781.09,-0.0841040313243866,-0.07667253911495209,0.3897485136985779,-0.006203549914062023,-1.5482295751571655,1.3938870429992676,34.406463623046875,12.439427375793457,222.71473693847656,43,-1.0,-4.0,149,-0.033750832080841064,-0.018297353759407997,0.19575412571430206,0.009877684526145458,0.007557177450507879,-0.002765882993116975,-0.9999188184738159
278782.728,-0.0841040313243866,-0.07667253911495209,0.3897485136985779,-0.2728129029273987,-1.66571044921875,1.040231466293335,-13.916061401367188,-6.399554252624512,160.80587768554688,43,-1.0,-4.0,149,-0.03350694850087166,-0.01836751587688923,0.19893616437911987,0.009404884651303291,0.005872704554349184,-0.02818947657942772,-0.999541163444519
278784.709,-0.08395024389028549,-0.07684258371591568,0.40130117535591125,-0.42154616117477417,-1.321564793586731,0.7511064410209656,-66.5735855102539,-23.045639038085938,55.180519104003906,43,-1.0,-4.0,149,-0.03350694850087166,-0.01836751587688923,0.19893616437911987,0.009404884651303291,0.005872704554349184,-0.02818947657942772,-0.999541163444519
278786.707,-0.08395024389028549,-0.07684258371591568,0.40130117535591125,-0.48534998297691345,-0.7667949795722961,0.6083090305328369,-109.7122573852539,-23.830114364624023,-1.8881285190582275,43,7.0,-11.0,150,-0.03350694850087166,-0.01836751587688923,0.19893616437911987,0.009404884651303291,0.005872704554349184,-0.02818947657942772,-0.999541163444519
278788.667,-0.08395024389028549,-0.07684258371591568,0.40130117535591125,-0.4301270544528961,-0.1015741154551506,0.7261028289794922,-138.8885040283203,-11.734152793884277,7.932175636291504,42,7.0,-11.0,150,-0.033385686576366425,-0.02046782150864601,0.20083500444889069,0.0009338085656054318,0.006357728503644466,-0.05851098895072937,-0.9982661604881287
278790.767,-0.08149484544992447,-0.051788050681352615,0.3496907949447632,-0.24281379580497742,0.6823520064353943,0.9418973326683044,-163.26022338867188,-5.313475131988525,16.311063766479492,42,7.0,-11.0,150,-0.033385686576366425,-0.02046782150864601,0.20083500444889069,0.0009338085656054318,0.006357728503644466,-0.05851098895072937,-0.9982661604881287
278792.631,-0.08149484544992447,-0.051788050681352615,0.3496907949447632,-0.07339406758546829,1.1795623302459717,0.9931795001029968,-177.46429443359375,-14.161897659301758,23.053743362426758,42,7.0,-11.0,150,-0.03392401337623596,-0.01904001273214817,0.20315994322299957,0.01991032063961029,0.009267105720937252,-0.06401678919792175,-0.997707188129425
278794.612,-0.08143210411071777,-0.05224791169166565,0.36098700761795044,-0.15245166420936584,0.7246498465538025,0.8743384480476379,-156.8557891845703,-25.37217140197754,58.20515060424805,42,7.0,-11.0,150,-0.03392401337623596,-0.01904001273214817,0.20315994322299957,0.01991032063961029,0.009267105720937252,-0.06401678919792175,-0.997707188129425
278796.593,-0.08143210411071777,-0.05224791169166565,0.36098700761795044,-0.4457688629627228,-0.5301426649093628,0.7478602528572083,-110.14057922363281,-18.200265884399414,32.24452590942383,42,7.0,-11.0,150,-0.03392401337623596,-0.01904001273214817,0.20315994322299957,0.01991032063961029,0.009267105720937252,-0.06401678919792175,-0.997707188129425
278798.578,-0.08143210411071777,-0.05224791169166565,0.36098700761795044,-0.6026307344436646,-1.5377627611160278,0.7539982199668884,-73.65013122558594,-7.374814987182617,-179.6369171142578,42,7.0,-11.0,150,-0.03471500799059868,-0.02064507082104683,0.2056463211774826,0.028142398223280907,0.00912886206060648,-0.029532205313444138,-0.9991259574890137
278800.912,-0.08316212147474289,-0.05108734220266342,0.3602467477321625,-0.40834805369377136,-1.6330256462097168,0.8327639698982239,-56.02545166015625,-15.675440788269043,-472.5101318359375,42,7.0,-11.0,150,-0.03471500799059868,-0.02064507082104683,0.2056463211774826,0.028142398223280907,0.00912886206060648,-0.029532205313444138,-0.9991259574890137
278802.546,-0.08316212147474289,-0.05108734220266342,0.3602467477321625,-0.01741623319685459,-1.0972403287887573,1.0892014503479004,-35.10091781616211,-22.797481536865234,-559.9727172851562,42,7.0,-11.0,150,-0.03471500799059868,-0.02064507082104683,0.2056463211774826,0.028142398223280907,0.00912886206060648,-0.029532205313444138,-0.9991259574890137
278804.526,-0.08316212147474289,-0.05108734220266342,0.3602467477321625,0.17992159724235535,-0.4341660141944885,1.5294177532196045,-2.267878532409668,-18.325855255126953,-353.4517822265625,42,7.0,-11.0,150,-0.03478071093559265,-0.021167289465665817,0.2082444727420807,0.027448024600744247,0.012648329138755798,0.006527051329612732,-0.9995219707489014
278806.506,-0.08317037671804428,-0.0516773983836174,0.3726699650287628,0.12223029881715775,0.0466446690261364,1.9181450605392456,30.280134201049805,-16.416179656982422,-69.41197204589844,42,7.0,-11.0,150,-0.03478071093559265,-0.021167289465665817,0.2082444727420807,0.027448024600744247,0.012648329138755798,0.006527051329612732,-0.9995219707489014
278808.49,-0.07783149182796478,-0.05813480168581009,0.37491917610168457,0.016988040879368782,0.13169243931770325,2.1001949310302734,52.07307815551758,-17.514503479003906,81.63235473632812,46,4.0,-5.0,147,-0.03478071093559265,-0.021167289465665817,0.2082444727420807,0.027448024600744247,0.012648329138755798,0.006527051329612732,-0.9995219707489014
278810.579,-0.07900349050760269,-0.04641033336520195,0.3164423704147339,0.019785361364483833,-0.2922004759311676,2.0502023696899414,44.24143600463867,-12.261662483215332,121.22473907470703,46,4.0,-5.0,147,-0.03544100746512413,-0.021758094429969788,0.21037983894348145,0.02624933235347271,0.015239734202623367,0.022008266299962997,-0.9992969632148743
278812.443,-0.0791344940662384,-0.04684557765722275,0.3281223475933075,0.069356270134449,-0.7832440733909607,1.7887842655181885,-7.760585308074951,-7.49512243270874,132.752685546875,46,4.0,-5.0,147,-0.03544100746512413,-0.021758094429969788,0.21037983894348145,0.02624933235347271,0.015239734202623367,0.022008266299962997,-0.9992969632148743
278814.433,-0.0791344940662384,-0.04684557765722275,0.3281223475933075,0.20144256949424744,-0.567152738571167,1.2189539670944214,-80.36248779296875,-17.229522705078125,85.56810760498047,46,4.0,-5.0,147,-0.03544100746512413,-0.021758094429969788,0.21037983894348145,0.02624933235347271,0.015239734202623367,0.022008266299962997,-0.9992969632148743
278816.405,-0.0791344940662384,-0.04684557765722275,0.3281223475933075,0.3498326241970062,0.6151874661445618,0.5648738145828247,-140.66905212402344,-31.164146423339844,19.776443481445312,46,4.0,-5.0,147,-0.035618845373392105,-0.022403093054890633,0.21341833472251892,0.026783542707562447,0.015810538083314896,0.0019487100653350353,-0.9995143413543701
278818.391,-0.07926792651414871,-0.04732777550816536,0.33978453278541565,0.3371739983558655,1.9478739500045776,0.1867755502462387,-149.6800537109375,-31.051828384399414,78.21369171142578,46,4.0,-5.0,147,-0.035618845373392105,-0.022403093054890633,0.21341833472251892,0.026783542707562447,0.015810538083314896,0.0019487100653350353,-0.9995143413543701
278820.717,-0.08542951941490173,-0.03846912458539009,0.3827187120914459,0.19879166781902313,2.5629398822784424,0.09243357926607132,-110.56291198730469,-20.72044563293457,270.52008056640625,46,4.0,-5.0,147,-0.034089382737874985,-0.025645311921834946,0.21669410169124603,0.019940085709095,0.009250910021364689,-0.03903520852327347,-0.9989960193634033
278822.356,-0.08546356111764908,-0.03927134722471237,0.39571642875671387,0.023653965443372726,2.256171941757202,0.33782756328582764,-74.2802734375,-8.969538688659668,390.27056884765625,46,4.0,-5.0,147,-0.034089382737874985,-0.025645311921834946,0.21669410169124603,0.019940085709095,0.009250910021364689,-0.03903520852327347,-0.9989960193634033
278824.337,-0.08546356111764908,-0.03927134722471237,0.39571642875671387,-0.04919901490211487,1.4677461385726929,0.7619802951812744,-68.95751190185547,-4.950951099395752,259.80517578125,46,4.0,-5.0,147,-0.034089382737874985,-0.025645311921834946,0.21669410169124603,0.019940085709095,0.009250910021364689,-0.03903520852327347,-0.9989960193634033
278826.317,-0.08546356111764908,-0.03927134722471237,0.39571642875671387,-0.058363523334264755,0.9266773462295532,1.0746134519577026,-77.01982116699219,-16.925249099731445,-14.477404594421387,46,1.0,0.0,146,-0.03611832112073898,-0.02352152019739151,0.2184537947177887,0.04193848371505737,0.014458169229328632,-0.05077482759952545,-0.9977244734764099
278828.3,-0.07910417020320892,-0.017220424488186836,0.34610623121261597,-0.2304248809814453,0.838171660900116,1.31156587600708,-70.5296630859375,-37.83218002319336,-207.37991333007812,51,1.0,0.0,146,-0.03611832112073898,-0.02352152019739151,0.2184537947177887,0.04193848371505737,0.014458169229328632,-0.05077482759952545,-0.9977244734764099
278830.399,-0.07964435964822769,-0.014815175905823708,0.300035685300827,-0.3352935016155243,1.0146307945251465,1.415385127067566,-38.49378967285156,-40.20458984375,-236.436279296875,51,1.0,0.0,146,-0.03611832112073898,-0.02352152019739151,0.2184537947177887,0.04193848371505737,0.014458169229328632,-0.05077482759952545,-0.9977244734764099
278832.255,-0.07964435964822769,-0.014815175905823708,0.300035685300827,-0.18190555274486542,1.181167483329773,1.3203966617584229,0.09992765635251999,-12.76500415802002,-190.3502960205078,51,1.0,0.0,146,-0.03668399900197983,-0.022805478423833847,0.2209356725215912,0.04074980318546295,0.017101582139730453,-0.028507564216852188,-0.9986162185668945
278834.237,-0.07991373538970947,-0.015460412949323654,0.31241461634635925,0.047856319695711136,1.1764822006225586,1.1736913919448853,17.376914978027344,15.115657806396484,-159.20208740234375,51,1.0,0.0,146,-0.03668399900197983,-0.022805478423833847,0.2209356725215912,0.04074980318546295,0.017101582139730453,-0.028507564216852188,-0.9986162185668945
278836.227,-0.07991373538970947,-0.015460412949323654,0.31241461634635925,0.06394672393798828,1.1567314863204956,1.0975946187973022,-0.3553205132484436,7.662746906280518,-136.653564453125,51,1.0,0.0,146,-0.03741322085261345,-0.02217523567378521,0.22358131408691406,0.03803443908691406,0.02008267492055893,0.004812356550246477,-0.9990630745887756
278838.199,-0.08022738993167877,-0.016036445274949074,0.32471445202827454,0.04623979702591896,1.1550637483596802,0.8637058138847351,-34.48606872558594,-19.422239303588867,-135.9707489013672,51,1.0,0.0,146,-0.03741322085261345,-0.02217523567378521,0.22358131408691406,0.03803443908691406,0.02008267492055893,0.004812356550246477,-0.9990630745887756
278840.535,-0.08540739864110947,-0.005382524337619543,0.34756410121917725,0.15165026485919952,0.9495532512664795,0.44136741757392883,-41.507259368896484,-19.04688835144043,-106.73989868164062,51,1.0,0.0,146,-0.03741322085261345,-0.02217523567378521,0.22358131408691406,0.03803443908691406,0.02008267492055893,0.004812356550246477,-0.9990630745887756
278842.17,-0.08540739864110947,-0.005382524337619543,0.34756410121917725,0.1610759049654007,0.43106675148010254,0.11718595772981644,-11.086557388305664,8.979897499084473,36.94009780883789,51,1.0,0.0,146,-0.03801855444908142,-0.021523049101233482,0.2265293151140213,0.04050656408071518,0.019585439935326576,0.010666935704648495,-0.9989303350448608
278844.143,-0.08575517684221268,-0.005846950225532055,0.3612370789051056,0.21051670610904694,-0.33173292875289917,-0.09375958144664764,31.543556213378906,28.860416412353516,177.54476928710938,51,1.0,0.0,146,-0.03801855444908142,-0.021523049101233482,0.2265293151140213,0.04050656408071518,0.019585439935326576,0.010666935704648495,-0.9989303350448608
278846.13,-0.08575517684221268,-0.005846950225532055,0.3612370789051056,0.42524102330207825,-1.0408070087432861,-0.1693781614303589,65.6587905883789,21.202383041381836,148.93035888671875,51,1.0,0.0,146,-0.03801855444908142,-0.021523049101233482,0.2265293151140213,0.04050656408071518,0.019585439935326576,0.010666935704648495,-0.9989303350448608
278848.12,-0.08575517684221268,-0.005846950225532055,0.3612370789051056,0.476945161819458,-1.3648736476898193,0.02737140841782093,85.6326904296875,-6.809936046600342,-15.309552192687988,51,6.0,11.0,144,-0.037836965173482895,-0.020839301869273186,0.22900332510471344,0.04084264859557152,0.016815856099128723,-0.00711546465754509,-0.9989988207817078
278850.204,-0.06259527802467346,-0.01378471590578556,0.23797374963760376,0.18666334450244904,-1.2280571460723877,0.4867550730705261,99.232421875,-28.531835556030273,-101.67628479003906,64,6.0,11.0,144,-0.037836965173482895,-0.020839301869273186,0.22900332510471344,0.04084264859557152,0.016815856099128723,-0.00711546465754509,-0.9989988207817078
278852.078,-0.06259527802467346,-0.01378471590578556,0.23797374963760376,-0.22598078846931458,-1.0238431692123413,0.970264732837677,124.28317260742188,-20.42280387878418,12.188867568969727,64,6.0,11.0,144,-0.037836965173482895,-0.020839301869273186,0.22900332510471344,0.04084264859557152,0.016815856099128723,-0.00711546465754509,-0.9989988207817078
278854.058,-0.06311196088790894,-0.013700525276362896,0.25079038739204407,-0.4616222679615021,-1.1684675216674805,1.1432291269302368,148.19725036621094,5.779347896575928,166.38963317871094,64,6.0,11.0,144,-0.03808421641588211,-0.020057015120983124,0.23089919984340668,0.032160717993974686,0.012464703992009163,-0.02601802349090576,-0.9990662336349487
278856.03,-0.06311196088790894,-0.013700525276362896,0.25079038739204407,-0.24192962050437927,-1.1875412464141846,1.0720702409744263,132.17971801757812,8.06457233428955,152.18954467773438,64,6.0,11.0,144,-0.03808421641588211,-0.020057015120983124,0.23089919984340668,0.032160717993974686,0.012464703992009163,-0.02601802349090576,-0.9990662336349487
278858.021,-0.06311196088790894,-0.013700525276362896,0.25079038739204407,0.2584616243839264,-0.6529406309127808,0.8252971172332764,74.79336547851562,-18.058881759643555,17.352567672729492,64,6.0,11.0,144,-0.03808421641588211,-0.020057015120983124,0.23089919984340668,0.032160717993974686,0.012464703992009163,-0.02601802349090576,-0.9990662336349487
278860.337,-0.06311196088790894,-0.013700525276362896,0.25079038739204407,0.3870132267475128,-0.0944526344537735,0.46890053153038025,19.264955520629883,-32.17442321777344,-28.222286224365234,64,6.0,11.0,144,-0.0385434590280056,-0.01915162429213524,0.23329323530197144,0.026785636320710182,0.01740347035229206,-0.029757961630821228,-0.9990466833114624
278861.976,-0.06754748523235321,-0.00449703773483634,0.25806665420532227,-0.03628794476389885,0.04557409510016441,0.22417494654655457,-11.59578800201416,-26.693159103393555,17.40201187133789,64,6.0,11.0,144,-0.0385434590280056,-0.01915162429213524,0.23329323530197144,0.026785636320710182,0.01740347035229206,-0.029757961630821228,-0.9990466833114624
278863.955,-0.06754748523235321,-0.00449703773483634,0.25806665420532227,-0.48056256771087646,-0.09329584985971451,0.17669427394866943,-24.438175201416016,-22.59228515625,-4.770649433135986,64,6.0,11.0,144,-0.03916386142373085,-0.019257713109254837,0.23435452580451965,0.02687337063252926,0.016106240451335907,-0.03185506910085678,-0.9990013241767883
278865.943,-0.06814608722925186,-0.004231567960232496,0.2720054090023041,-0.4783932566642761,-0.29302743077278137,0.3759070336818695,-30.507600784301758,-18.301271438598633,-89.29179382324219,64,6.0,11.0,144,-0.03916386142373085,-0.019257713109254837,0.23435452580451965,0.02687337063252926,0.016106240451335907,-0.03185506910085678,-0.9990013241767883
278867.924,-0.06539194285869598,0.01590695232152939,0.27329781651496887,-0.1592431366443634,-0.49295952916145325,0.8048082590103149,-48.0714225769043,-7.995621204376221,-122.73077392578125,64,5.0,22.0,142,-0.03916386142373085,-0.019257713109254837,0.23435452580451965,0.02687337063252926,0.016106240451335907,-0.03185506910085678,-0.9990013241767883
278870.016,-0.06176553666591644,0.015901273116469383,0.21347491443157196,0.09746307879686356,-0.6558387279510498,1.2965964078903198,-73.89444732666016,-5.200377941131592,-110.42042541503906,67,5.0,22.0,142,-0.03915824368596077,-0.019528700038790703,0.23616303503513336,0.03175061196088791,0.01916542276740074,-0.024577545002102852,-0.9990097880363464
278871.885,-0.062068745493888855,0.01808195188641548,0.16741439700126648,0.08958945423364639,-0.5183731913566589,1.7058560848236084,-92.31800842285156,-15.758008003234863,-113.36175537109375,67,5.0,22.0,142,-0.03915824368596077,-0.019528700038790703,0.23616303503513336,0.03175061196088791,0.01916542276740074,-0.024577545002102852,-0.9990097880363464
278873.871,-0.062068745493888855,0.01808195188641548,0.16741439700126648,-0.1399172842502594,0.1312437206506729,1.878605604171753,-104.88518524169922,-29.286733627319336,-127.56151580810547,67,5.0,22.0,142,-0.03915824368596077,-0.019528700038790703,0.23616303503513336,0.03175061196088791,0.01916542276740074,-0.024577545002102852,-0.9990097880363464
278875.842,-0.062068745493888855,0.01808195188641548,0.16741439700126648,-0.2892955541610718,0.9055910110473633,1.7633888721466064,-95.8384017944336,-21.87246322631836,-112.0276107788086,67,5.0,22.0,142,-0.03991061449050903,-0.019508864730596542,0.23850595951080322,0.03246789053082466,0.01809767819941044,-0.008968968875706196,-0.9992687106132507
278877.824,-0.06267917901277542,0.018192008137702942,0.18064570426940918,-0.1332961767911911,1.029266119003296,1.5147416591644287,-53.667449951171875,7.08360481262207,-19.10460090637207,67,5.0,22.0,142,-0.03991061449050903,-0.019508864730596542,0.23850595951080322,0.03246789053082466,0.01809767819941044,-0.008968968875706196,-0.9992687106132507
278880.167,-0.07104474306106567,0.02804313600063324,0.23890337347984314,0.3013592064380646,0.18646027147769928,1.3809407949447632,4.517571926116943,32.22187423706055,128.18499755859375,67,5.0,22.0,142,-0.040547873824834824,-0.019978132098913193,0.24038976430892944,0.03965937718749046,0.023924570530653,0.005287528038024902,-0.9989128112792969
278881.797,-0.07174941152334213,0.028168076649308205,0.2536312937736511,0.5548426508903503,-1.085777997970581,1.4814034700393677,49.735435485839844,32.21062469482422,220.9441375732422,67,5.0,22.0,142,-0.040547873824834824,-0.019978132098913193,0.24038976430892944,0.03965937718749046,0.023924570530653,0.005287528038024902,-0.9989128112792969
278883.768,-0.07174941152334213,0.028168076649308205,0.2536312937736511,0.34198686480522156,-2.060751438140869,1.640166997909546,77.25862121582031,7.794553756713867,122.39579010009766,67,5.0,22.0,142,-0.040547873824834824,-0.019978132098913193,0.24038976430892944,0.03965937718749046,0.023924570530653,0.005287528038024902,-0.9989128112792969
278885.756,-0.07174941152334213,0.028168076649308205,0.2536312937736511,-0.14086972177028656,-2.3981826305389404,1.6064587831497192,88.04533386230469,-17.56485366821289,-98.68461608886719,67,5.0,22.0,142,-0.04109752178192139,-0.020029384642839432,0.24281401932239532,0.03517971187829971,0.020309077575802803,0.008249135687947273,-0.9991405606269836
278887.738,-0.07174941152334213,0.028168076649308205,0.2536312937736511,-0.5014081597328186,-1.8790549039840698,1.3110098838806152,69.94789123535156,-20.83582305908203,-224.09121704101562,67,0.0,10.0,141,-0.04109752178192139,-0.020029384642839432,0.24281401932239532,0.03517971187829971,0.020309077575802803,0.008249135687947273,-0.9991405606269836
278889.829,-0.07910434156656265,0.026127949357032776,0.2662220895290375,-0.36922577023506165,-0.47991663217544556,0.9580450057983398,24.11564064025879,0.26098787784576416,-198.94309997558594,75,0.0,10.0,141,-0.04109752178192139,-0.020029384642839432,0.24281401932239532,0.03517971187829971,0.020309077575802803,0.008249135687947273,-0.9991405606269836
278891.698,-0.07910434156656265,0.026127949357032776,0.2662220895290375,0.012550911866128445,1.2311493158340454,0.7059375643730164,-24.283462524414062,9.959396362304688,-38.02082061767578,75,0.0,10.0,141,-0.04083337262272835,-0.021360687911510468,0.24507752060890198,0.017258072271943092,0.01823374256491661,-0.01649412512779236,-0.9995487332344055
278893.683,-0.07975059747695923,0.026335470378398895,0.27991482615470886,0.2389211356639862,2.3005869388580322,0.6731410026550293,-48.631980895996094,-13.308356285095215,203.95361328125,75,0.0,10.0,141,-0.04083337262272835,-0.021360687911510468,0.24507752060890198,0.017258072271943092,0.01823374256491661,-0.01649412512779236,-0.9995487332344055
278895.655,-0.07975059747695923,0.026335470378398895,0.27991482615470886,0.1833023875951767,2.3561253547668457,0.9765662550926208,-68.19499969482422,-39.46978759765625,380.0572814941406,75,0.0,10.0,141,-0.04083337262272835,-0.021360687911510468,0.24507752060890198,0.017258072271943092,0.01823374256491661,-0.01649412512779236,-0.9995487332344055
278897.635,-0.07975059747695923,0.026335470378398895,0.27991482615470886,0.043171707540750504,1.7425075769424438,1.3430191278457642,-86.25680541992188,-40.007198333740234,385.5737609863281,75,0.0,10.0,141,-0.04168996587395668,-0.019410571083426476,0.24812276661396027,0.03529645875096321,0.021339235827326775,-0.03663721680641174,-0.9984771013259888
278899.971,-0.08388053625822067,0.032173044979572296,0.2846992611885071,-0.040553826838731766,0.8586171865463257,1.5091571807861328,-83.82574462890625,-20.055265426635742,279.4446105957031,75,0.0,10.0,141,-0.04168996587395668,-0.019410571083426476,0.24812276661396027,0.03529645875096321,0.021339235827326775,-0.03663721680641174,-0.9984771013259888
278901.607,-0.08388053625822067,0.032173044979572296,0.2846992611885071,-0.13723169267177582,0.11268366873264313,1.4471149444580078,-60.473052978515625,-3.558645248413086,161.03097534179688,75,0.0,10.0,141,-0.04168996587395668,-0.019410571083426476,0.24812276661396027,0.03529645875096321,0.021339235827326775,-0.03663721680641174,-0.9984771013259888
278903.579,-0.08388053625822067,0.032173044979572296,0.2846992611885071,-0.29655537009239197,-0.2181345522403717,1.3048157691955566,-29.85426902770996,-8.756982803344727,-4.2576775550842285,75,0.0,10.0,141,-0.04237404093146324,-0.01969870738685131,0.25007206201553345,0.041929151862859726,0.02213955856859684,-0.0327632762491703,-0.9983378648757935
278905.566,-0.08463933318853378,0.03273124620318413,0.29985475540161133,-0.269889771938324,0.11621644347906113,1.1575459241867065,-8.896309852600098,-23.43278694152832,-204.8505401611328,75,0.0,10.0,141,-0.04237404093146324,-0.01969870738685131,0.25007206201553345,0.041929151862859726,0.02213955856859684,-0.0327632762491703,-0.9983378648757935
278907.558,-0.08463933318853378,0.03273124620318413,0.29985475540161133,-0.12653660774230957,0.9598631262779236,0.8636098504066467,3.195894956588745,-25.793251037597656,-258.4574890136719,75,0.0,24.0,139,-0.043003544211387634,-0.0186005812138319,0.2528807520866394,0.03779101371765137,0.02319329045712948,-0.023940160870552063,-0.9987296462059021
278909.64,-0.08463933318853378,0.03273124620318413,0.29985475540161133,-0.08314782381057739,1.5656794309616089,0.5690928101539612,21.18745994567871,-14.528961181640625,-118.36044311523438,85,0.0,24.0,139,-0.043003544211387634,-0.0186005812138319,0.2528807520866394,0.03779101371765137,0.02319329045712948,-0.023940160870552063,-0.9987296462059021
278911.515,-0.09311026334762573,0.05439004674553871,0.2829817533493042,0.04439013451337814,1.2737114429473877,0.49512699246406555,40.2502326965332,5.6609930992126465,39.44953918457031,85,0.0,24.0,139,-0.043003544211387634,-0.0186005812138319,0.2528807520866394,0.03779101371765137,0.02319329045712948,-0.023940160870552063,-0.9987296462059021
278913.487,-0.09311026334762573,0.05439004674553871,0.2829817533493042,0.21256470680236816,0.34444719552993774,0.6214644908905029,36.874202728271484,19.8604793548584,96.0287857055664,85,0.0,24.0,139,-0.043803870677948,-0.017856106162071228,0.255493700504303,0.03830859065055847,0.024046659469604492,-0.01749149151146412,-0.9988235235214233
278915.468,-0.0938725546002388,0.05494021251797676,0.2973819077014923,0.17588208615779877,-0.27883315086364746,0.9181979894638062,3.054733991622925,14.98537826538086,40.11793899536133,85,0.0,24.0,139,-0.043803870677948,-0.017856106162071228,0.255493700504303,0.03830859065055847,0.024046659469604492,-0.01749149151146412,-0.9988235235214233
278917.449,-0.0938725546002388,0.05494021251797676,0.2973819077014923,-0.06391896307468414,-0.00898472685366869,1.0071922540664673,-42.11942672729492,1.0543104410171509,-96.3099365234375,85,0.0,24.0,139,-0.043803870677948,-0.017856106162071228,0.255493700504303,0.03830859065055847,0.024046659469604492,-0.01749149151146412,-0.9988235235214233
278919.789,-0.09464654326438904,0.055537838488817215,0.3116109073162079,-0.06836632639169693,0.6046993136405945,0.7651637196540833,-36.88319778442383,-6.32377290725708,-178.3566436767578,85,0.0,24.0,139,-0.04474979639053345,-0.017047995701432228,0.2577344477176666,0.03717102110385895,0.022985227406024933,-0.022543778643012047,-0.9987902045249939
278921.421,-0.09744711220264435,0.06090839207172394,0.2862018644809723,0.057307466864585876,0.7088887095451355,0.5937304496765137,43.28125762939453,-0.27081021666526794,-25.90555763244629,85,0.0,24.0,139,-0.04474979639053345,-0.017047995701432228,0.2577344477176666,0.03717102110385895,0.022985227406024933,-0.022543778643012047,-0.9987902045249939
278923.393,-0.09744711220264435,0.06090839207172394,0.2862018644809723,0.0824766457080841,-0.13289694488048553,0.625262975692749,139.4445037841797,9.947867393493652,213.8708038330078,85,0.0,24.0,139,-0.044663261622190475,-0.016665872186422348,0.2603300213813782,0.03614833205938339,0.019685758277773857,-0.024383503943681717,-0.9988549947738647
278925.374,-0.09825097024440765,0.06156613305211067,0.30203717947006226,-0.019517486914992332,-1.478553056716919,0.6810864806175232,185.94801330566406,14.20914363861084,237.6153106689453,85,0.0,24.0,139,-0.044663261622190475,-0.016665872186422348,0.2603300213813782,0.03614833205938339,0.019685758277773857,-0.024383503943681717,-0.9988549947738647
278927.369,-0.09825097024440765,0.06156613305211067,0.30203717947006226,-0.15045717358589172,-2.407830238342285,0.5155777931213379,166.3177490234375,1.1443589925765991,27.158613204956055,85,0.0,24.0,139,-0.044663261622190475,-0.016665872186422348,0.2603300213813782,0.03614833205938339,0.019685758277773857,-0.024383503943681717,-0.9988549947738647
278929.463,-0.08931440860033035,0.0409771129488945,0.31766757369041443,-0.12498602271080017,-2.338197946548462,0.18900896608829498,118.8507080078125,-22.856197357177734,-231.45167541503906,95,2.0,23.0,137,-0.044960491359233856,-0.015509674325585365,0.2632283866405487,0.0270833857357502,0.019408971071243286,-0.01793605647981167,-0.9992838501930237
278931.326,-0.0879746526479721,0.04508783295750618,0.23520922660827637,-0.07844617962837219,-1.4113779067993164,-0.03533441573381424,79.11759948730469,-29.331262588500977,-361.9614562988281,95,2.0,23.0,137,-0.044960491359233856,-0.015509674325585365,0.2632283866405487,0.0270833857357502,0.019408971071243286,-0.01793605647981167,-0.9992838501930237
278933.308,-0.0879746526479721,0.04508783295750618,0.23520922660827637,-0.08817879110574722,-0.22715826332569122,-0.019094539806246758,60.56678009033203,-8.95519733428955,-288.99114990234375,95,2.0,23.0,137,-0.044960491359233856,-0.015509674325585365,0.2632283866405487,0.0270833857357502,0.019408971071243286,-0.01793605647981167,-0.9992838501930237
278935.28,-0.0879746526479721,0.04508783295750618,0.23520922660827637,-0.028015458956360817,0.6398056149482727,0.200117290019989,47.89410400390625,11.041332244873047,-54.10823059082031,95,2.0,23.0,137,-0.046194080263376236,-0.016195222735404968,0.26397132873535156,0.011313825845718384,0.021474214270710945,-0.017502523958683014,-0.9995522499084473
278937.261,-0.08881875872612,0.04603869467973709,0.2488653063774109,0.13588440418243408,0.9285807609558105,0.45378899574279785,14.799363136291504,10.630520820617676,171.83619689941406,95,2.0,23.0,137,-0.046194080263376236,-0.016195222735404968,0.26397132873535156,0.011313825845718384,0.021474214270710945,-0.017502523958683014,-0.9995522499084473
278939.587,-0.08881875872612,0.04603869467973709,0.2488653063774109,0.13454751670360565,0.6382355690002441,0.6844705939292908,-35.37247085571289,-2.4342575073242188,250.62603759765625,95,2.0,23.0,137,-0.046194080263376236,-0.016195222735404968,0.26397132873535156,0.011313825845718384,0.021474214270710945,-0.017502523958683014,-0.9995522499084473
278941.232,-0.0864947959780693,0.048140909522771835,0.15922348201274872,-0.12993864715099335,-0.023628564551472664,0.9680927991867065,-70.88217163085938,-13.42821979522705,194.33050537109375,95,2.0,23.0,137,-0.04671518877148628,-0.014988645911216736,0.26544249057769775,0.0253350418061018,0.021565107628703117,-0.022435104474425316,-0.9991945624351501
278943.205,-0.08741943538188934,0.049394480884075165,0.17463934421539307,-0.30466824769973755,-0.6953072547912598,1.2307029962539673,-65.83183288574219,-13.790605545043945,49.17500305175781,95,2.0,23.0,137,-0.04671518877148628,-0.014988645911216736,0.26544249057769775,0.0253350418061018,0.021565107628703117,-0.022435104474425316,-0.9991945624351501
278945.197,-0.08741943538188934,0.049394480884075165,0.17463934421539307,-0.24214796721935272,-1.0362765789031982,1.499916434288025,-38.56926727294922,-6.512845516204834,-117.46697998046875,95,2.0,23.0,137,-0.04671518877148628,-0.014988645911216736,0.26544249057769775,0.0253350418061018,0.021565107628703117,-0.022435104474425316,-0.9991945624351501
278947.178,-0.08741943538188934,0.049394480884075165,0.17463934421539307,-0.11155819892883301,-0.9011653661727905,1.7933143377304077,-24.778608322143555,-1.2141704559326172,-217.02406311035156,95,2.0,23.0,137,-0.04726170375943184,-0.014531759545207024,0.2677319049835205,0.028498761355876923,0.020064054057002068,-0.027799639850854874,-0.9990057945251465
278949.273,-0.08833616226911545,0.050664834678173065,0.18983054161071777,-0.05310318246483803,-0.2758871912956238,2.0213980674743652,-29.1130313873291,-5.183329105377197,-225.2940216064453,95,1.0,17.0,136,-0.04726170375943184,-0.014531759545207024,0.2677319049835205,0.028498761355876923,0.020064054057002068,-0.027799639850854874,-0.9990057945251465
278951.139,-0.08532097935676575,0.06538230925798416,0.18049868941307068,-0.07154891639947891,0.6767199039459229,2.269702196121216,-33.65799331665039,-11.34219741821289,-190.5662384033203,105,1.0,17.0,136,-0.04726170375943184,-0.014531759545207024,0.2677319049835205,0.028498761355876923,0.020064054057002068,-0.027799639850854874,-0.9990057945251465
278953.11,-0.08532097935676575,0.06538230925798416,0.18049868941307068,0.07526414841413498,1.3885812759399414,2.230816602706909,-11.791271209716797,2.378161668777466,-99.12252044677734,105,1.0,17.0,136,-0.04811709001660347,-0.01403725240379572,0.26933711767196655,0.02639189176261425,0.02266591228544712,-0.02095678076148033,-0.999174952507019
278955.092,-0.08623645454645157,0.06638985127210617,0.19420887529850006,0.2712835371494293,1.0405455827713013,1.9172701835632324,50.60318374633789,35.933895111083984,99.75373077392578,105,1.0,17.0,136,-0.04811709001660347,-0.01403725240379572,0.26933711767196655,0.02639189176261425,0.02266591228544712,-0.02095678076148033,-0.999174952507019
278957.074,-0.08623645454645157,0.06638985127210617,0.19420887529850006,0.14747339487075806,-0.5944052338600159,1.6667557954788208,115.19779205322266,57.07540512084961,253.96194458007812,105,1.0,17.0,136,-0.04938585311174393,-0.014295808039605618,0.2716265022754669,0.03059239126741886,0.024818748235702515,0.0001080293586710468,-0.9992238283157349
