timestamp,stateEstimate.vx,stateEstimate.vy,stateEstimate.vz,acc.x,acc.y,acc.z,gyro.x,gyro.y,gyro.z,range.zrange,mtf02.dpixelX,mtf02.dpixelY,mtf02.flowQual,locSrv.x,locSrv.y,locSrv.z,locSrv.qx,locSrv.qy,locSrv.qz,locSrv.qw
20950.409,0.0024212917778640985,-0.005407399032264948,0.012342622503638268,0.024975396692752838,-0.015540927648544312,0.9997327923774719,-0.0929543748497963,0.007295225281268358,-0.013208169490098953,20,0.0,0.0,177,-2.4452922344207764,-0.018984215334057808,0.14084646105766296,0.004698658362030983,0.0014444170519709587,0.004888823721557856,-0.9999760389328003
20952.708,0.002280444372445345,-0.005269601941108704,0.023823298513889313,0.02530176378786564,-0.016051219776272774,0.9996899366378784,-0.1328706443309784,0.014437897130846977,0.017078863456845284,20,0.0,0.0,177,-2.4446349143981934,-0.018898896872997284,0.14129629731178284,0.004783121403306723,-0.0003513827978167683,0.004841894842684269,-0.9999768733978271
20954.372,0.002280444372445345,-0.005269601941108704,0.023823298513889313,0.025026770308613777,-0.016723157837986946,0.999709963798523,-0.020646777004003525,-0.11292465031147003,-0.12830771505832672,20,0.0,0.0,177,-2.4446349143981934,-0.018898896872997284,0.14129629731178284,0.004783121403306723,-0.0003513827978167683,0.004841894842684269,-0.9999768733978271
20956.377,0.0016440997133031487,-0.00478447275236249,0.023819616064429283,0.024797068908810616,-0.017262188717722893,0.9997245073318481,-0.028052330017089844,-0.3061590790748596,-0.2577199935913086,20,0.0,0.0,177,-2.4446349143981934,-0.018898896872997284,0.14129629731178284,0.004783121403306723,-0.0003513827978167683,0.004841894842684269,-0.9999768733978271
20958.339,0.0016440997133031487,-0.00478447275236249,0.023819616064429283,0.024610914289951324,-0.017505697906017303,0.9997071623802185,-0.11799807101488113,-0.4073611795902252,-0.20380403101444244,20,0.0,0.0,177,-2.4450364112854004,-0.01882609911262989,0.14142325520515442,0.005450577009469271,0.0009297876968048513,0.004151358734816313,-0.9999761581420898
20960.315,0.002464475343003869,-0.005266116466373205,-0.008653025142848492,0.02438654564321041,-0.017434408888220787,0.9997491836547852,-0.021264465525746346,-0.39553549885749817,-0.14487339556217194,20,0.0,0.0,177,-2.4450364112854004,-0.01882609911262989,0.14142325520515442,0.005450577009469271,0.0009297876968048513,0.004151358734816313,-0.9999761581420898
20962.377,0.002464475343003869,-0.005266116466373205,-0.008653025142848492,0.024521585553884506,-0.017293047159910202,1.000065803527832,0.05110025033354759,-0.3046678304672241,-0.09676368534564972,20,0.0,0.0,177,-2.445075035095215,-0.018732281401753426,0.1410951316356659,0.004754319321364164,0.0012753568589687347,0.004928210750222206,-0.9999758005142212
20964.278,0.0023200623691082,-0.005131220445036888,0.0013556285994127393,0.02500762604176998,-0.017270591109991074,1.000312328338623,0.0016927003161981702,-0.29316049814224243,-0.08153172582387924,20,0.0,0.0,177,-2.445075035095215,-0.018732281401753426,0.1410951316356659,0.004754319321364164,0.0012753568589687347,0.004928210750222206,-0.9999758005142212
20966.259,0.0023200623691082,-0.005131220445036888,0.0013556285994127393,0.02555503137409687,-0.017341867089271545,1.00038480758667,-0.045060817152261734,-0.1942959874868393,-0.05726488679647446,20,0.0,0.0,177,-2.445075035095215,-0.018732281401753426,0.1410951316356659,0.004754319321364164,0.0012753568589687347,0.004928210750222206,-0.9999758005142212
20968.239,0.0023200623691082,-0.005131220445036888,0.0013556285994127393,0.025838270783424377,-0.017474479973316193,1.0001076459884644,-0.02389019913971424,0.030504370108246803,-0.0710633173584938,20,0.0,0.0,177,-2.445131540298462,-0.018807919695973396,0.14108195900917053,0.004530324134975672,0.0014029568992555141,0.004913201089948416,-0.9999766945838928
20970.224,0.0023415202740579844,-0.005358910653740168,0.012590991333127022,0.025941386818885803,-0.01776539906859398,0.9993792772293091,-0.034612078219652176,0.06388728320598602,-0.05527834966778755,20,0.0,0.0,177,-2.445131540298462,-0.018807919695973396,0.14108195900917053,0.004530324134975672,0.0014029568992555141,0.004913201089948416,-0.9999766945838928
20972.535,0.0023415202740579844,-0.005358910653740168,0.012590991333127022,0.02593674696981907,-0.01798955537378788,0.9986814260482788,-0.05970698967576027,0.027600031346082687,0.04261492192745209,20,0.0,0.0,177,-2.445131540298462,-0.018807919695973396,0.14108195900917053,0.004530324134975672,0.0014029568992555141,0.004913201089948416,-0.9999766945838928
20974.186,0.0023415202740579844,-0.005358910653740168,0.012590991333127022,0.025787100195884705,-0.01796865276992321,0.9985472559928894,-0.05930062383413315,0.0007266842876560986,0.17956002056598663,20,0.0,0.0,177,-2.4452342987060547,-0.018940497189760208,0.14081436395645142,0.004693260882049799,0.001654803054407239,0.004246755503118038,-0.9999786019325256
20976.179,0.0017449726583436131,-0.004784044809639454,0.023392971605062485,0.02602020464837551,-0.017632264643907547,0.9988728761672974,-0.11980562657117844,-0.09712161123752594,0.18517380952835083,20,0.0,0.0,177,-2.4452342987060547,-0.018940497189760208,0.14081436395645142,0.004693260882049799,0.001654803054407239,0.004246755503118038,-0.9999786019325256
20978.146,0.0027014128863811493,-0.005498738493770361,-0.013629524037241936,0.026427390053868294,-0.017193475738167763,0.9991602897644043,-0.18984757363796234,-0.2223060131072998,0.02176036313176155,20,0.0,0.0,177,-2.4452342987060547,-0.018940497189760208,0.14081436395645142,0.004693260882049799,0.001654803054407239,0.004246755503118038,-0.9999786019325256
20980.131,0.0027014128863811493,-0.005498738493770361,-0.013629524037241936,0.026365036144852638,-0.017039507627487183,0.9991205334663391,-0.12952835857868195,-0.264263778924942,0.024055039510130882,20,0.0,0.0,177,-2.445204734802246,-0.01879638060927391,0.14103560149669647,0.004578094929456711,0.0016566987615078688,0.004830542020499706,-0.9999765753746033
20982.188,0.0025422803591936827,-0.005365715362131596,-0.0032963587436825037,0.02587706409394741,-0.016944920644164085,0.9990023374557495,-0.09168098866939545,-0.07777325063943863,0.026404621079564095,20,0.0,0.0,177,-2.445204734802246,-0.01879638060927391,0.14103560149669647,0.004578094929456711,0.0016566987615078688,0.004830542020499706,-0.9999765753746033
20984.1,0.0025422803591936827,-0.005365715362131596,-0.0032963587436825037,0.02531960979104042,-0.01668720692396164,0.9992597699165344,-0.13704317808151245,0.014430978335440159,-0.0496772937476635,20,0.0,0.0,177,-2.445204734802246,-0.01879638060927391,0.14103560149669647,0.004578094929456711,0.0016566987615078688,0.004830542020499706,-0.9999765753746033
20986.07,0.0025422803591936827,-0.005365715362131596,-0.0032963587436825037,0.025155525654554367,-0.01651676930487156,0.9998008608818054,-0.04614834487438202,-0.09381763637065887,-0.11276145279407501,20,0.0,0.0,177,-2.4452013969421387,-0.01886381395161152,0.14100927114486694,0.005052735563367605,0.0014908072771504521,0.0045808590948581696,-0.9999756813049316
20988.052,0.002687611151486635,-0.005573899019509554,0.006710791494697332,0.025156943127512932,-0.016651153564453125,1.000171184539795,0.05659349262714386,-0.09030388295650482,-0.14794068038463593,20,0.0,0.0,177,-2.4452013969421387,-0.01886381395161152,0.14100927114486694,0.005052735563367605,0.0014908072771504521,0.0045808590948581696,-0.9999756813049316
20990.034,0.002687611151486635,-0.005573899019509554,0.006710791494697332,0.02499339170753956,-0.01688547618687153,1.0003317594528198,0.13035377860069275,-0.10057445615530014,-0.08965858072042465,20,0.0,0.0,177,-2.4451487064361572,-0.018790191039443016,0.14108869433403015,0.004644913598895073,0.0015202505746856332,0.0046312278136610985,-0.9999773502349854
20992.327,0.0025187840219587088,-0.005429214332252741,0.017954863607883453,0.02472909353673458,-0.017150914296507835,1.0002095699310303,0.07766636461019516,-0.20227260887622833,-0.1392165720462799,20,0.0,0.0,177,-2.4451487064361572,-0.018790191039443016,0.14108869433403015,0.004644913598895073,0.0015202505746856332,0.0046312278136610985,-0.9999773502349854
20993.995,0.0025187840219587088,-0.005429214332252741,0.017954863607883453,0.02452785149216652,-0.017377421259880066,0.9999917149543762,0.02444632537662983,-0.2438313215970993,-0.012885086238384247,20,0.0,0.0,177,-2.4451487064361572,-0.018790191039443016,0.14108869433403015,0.004644913598895073,0.0015202505746856332,0.0046312278136610985,-0.9999773502349854
20995.986,0.0025187840219587088,-0.005429214332252741,0.017954863607883453,0.024394499137997627,-0.017430594190955162,0.9998638033866882,0.0655708983540535,-0.04722299426794052,0.1698974370956421,20,0.0,0.0,177,-2.4451346397399902,-0.018791070207953453,0.1411007046699524,0.004400843288749456,0.0015055136755108833,0.004943293519318104,-0.9999770522117615
20997.967,0.0025187840219587088,-0.005429214332252741,0.017954863607883453,0.024424104019999504,-0.017333410680294037,0.9999184012413025,0.11944469064474106,0.14130662381649017,0.15664918720722198,20,0.0,0.0,177,-2.4451346397399902,-0.018791070207953453,0.1411007046699524,0.004400843288749456,0.0015055136755108833,0.004943293519318104,-0.9999770522117615
20999.939,0.0025997604243457317,-0.0055076200515031815,-0.00944914948195219,0.02467629499733448,-0.017188286408782005,1.0002117156982422,0.1203731819987297,0.14598087966442108,0.05286278948187828,20,0.0,0.0,177,-2.4451346397399902,-0.018791070207953453,0.1411007046699524,0.004400843288749456,0.0015055136755108833,0.004943293519318104,-0.9999770522117615
21002.0,0.0025997604243457317,-0.0055076200515031815,-0.00944914948195219,0.024781005457043648,-0.01678556576371193,1.0005948543548584,0.01894570328295231,0.09857656061649323,-0.029301440343260765,20,0.0,0.0,177,-2.4452152252197266,-0.01887662708759308,0.14105454087257385,0.004902278538793325,0.0014139871345832944,0.004528190474957228,-0.9999767541885376
21003.902,0.0024385424330830574,-0.005379891023039818,0.0010640483815222979,0.02461528219282627,-0.016166003420948982,1.0009671449661255,0.05200112611055374,0.018495876342058182,-0.08580285310745239,20,0.0,0.0,177,-2.4452152252197266,-0.01887662708759308,0.14105454087257385,0.004902278538793325,0.0014139871345832944,0.004528190474957228,-0.9999767541885376
21005.892,0.0024385424330830574,-0.005379891023039818,0.0010640483815222979,0.024429239332675934,-0.015673331916332245,1.001298189163208,0.05643094703555107,-0.10560057312250137,-0.1311103254556656,20,0.0,0.0,177,-2.4452152252197266,-0.01887662708759308,0.14105454087257385,0.004902278538793325,0.0014139871345832944,0.004528190474957228,-0.9999767541885376
21007.871,0.0024385424330830574,-0.005379891023039818,0.0010640483815222979,0.02431391179561615,-0.015472082421183586,1.0013259649276733,-0.09166640788316727,-0.2406356781721115,-0.06226486712694168,20,0.0,0.0,177,-2.445159435272217,-0.01887691393494606,0.14105908572673798,0.004716337192803621,0.0012989416718482971,0.005016593728214502,-0.9999754428863525
21009.845,0.002452670130878687,-0.00553348520770669,0.011397299356758595,0.024295350536704063,-0.015735061839222908,1.0007725954055786,-0.07408733665943146,-0.41398072242736816,0.017545919865369797,20,0.0,0.0,177,-2.445159435272217,-0.01887691393494606,0.14105908572673798,0.004716337192803621,0.0012989416718482971,0.005016593728214502,-0.9999754428863525
21012.145,0.002452670130878687,-0.00553348520770669,0.011397299356758595,0.024226896464824677,-0.01627952791750431,0.9999671578407288,-0.06629327684640884,-0.5318893790245056,0.1488722562789917,20,0.0,0.0,177,-2.445235252380371,-0.01901107467710972,0.14085359871387482,0.004622521344572306,0.0011769774137064815,0.005086621269583702,-0.9999757409095764
21013.808,0.0022799852304160595,-0.005410358775407076,0.022774366661906242,0.02413063868880272,-0.016684960573911667,0.9998248219490051,-0.03952754661440849,-0.4029078781604767,0.08317116647958755,20,0.0,0.0,177,-2.445235252380371,-0.01901107467710972,0.14085359871387482,0.004622521344572306,0.0011769774137064815,0.005086621269583702,-0.9999757409095764
21015.796,0.0022799852304160595,-0.005410358775407076,0.022774366661906242,0.02402595803141594,-0.016767600551247597,1.0001212358474731,0.16996724903583527,-0.15179722011089325,-0.19710101187229156,20,0.0,0.0,177,-2.445235252380371,-0.01901107467710972,0.14085359871387482,0.004622521344572306,0.0011769774137064815,0.005086621269583702,-0.9999757409095764
21017.781,0.0022799852304160595,-0.005410358775407076,0.022774366661906242,0.02401083894073963,-0.016685042530298233,1.0003156661987305,0.19649694859981537,0.03790158033370972,-0.18818332254886627,20,0.0,0.0,177,-2.4451653957366943,-0.018784910440444946,0.14110608398914337,0.004757124464958906,0.0016240880358964205,0.004376593511551619,-0.9999777674674988
21019.751,0.0023731556721031666,-0.00547558581456542,-0.006073374766856432,0.024212781339883804,-0.01642473042011261,1.0003165006637573,0.038345400243997574,0.01934683881700039,-0.04371804744005203,20,0.0,0.0,177,-2.4451653957366943,-0.018784910440444946,0.14110608398914337,0.004757124464958906,0.0016240880358964205,0.004376593511551619,-0.9999777674674988
21021.813,0.0023731556721031666,-0.00547558581456542,-0.006073374766856432,0.024576755240559578,-0.016123192384839058,0.999879002571106,0.03947947174310684,-0.15452253818511963,0.02116004377603531,20,0.0,0.0,177,-2.4451653957366943,-0.018784910440444946,0.14110608398914337,0.004757124464958906,0.0016240880358964205,0.004376593511551619,-0.9999777674674988
21023.713,0.0023731556721031666,-0.00547558581456542,-0.006073374766856432,0.025217518210411072,-0.015919920057058334,0.9990842938423157,0.15998731553554535,-0.15041112899780273,0.026560917496681213,20,0.0,0.0,177,-2.445221424102783,-0.018923690542578697,0.1409393697977066,0.004735580645501614,0.001522972248494625,0.004488135688006878,-0.9999775886535645
21025.695,0.002209101803600788,-0.005351675674319267,0.0045607383362948895,0.0259825699031353,-0.0158220361918211,0.9983572363853455,0.1785256415605545,0.0005212156684137881,-0.11579219996929169,20,0.0,0.0,177,-2.445221424102783,-0.018923690542578697,0.1409393697977066,0.004735580645501614,0.001522972248494625,0.004488135688006878,-0.9999775886535645
21027.686,0.002209101803600788,-0.005351675674319267,0.0045607383362948895,0.026568619534373283,-0.015767263248562813,0.9980917572975159,0.12155964970588684,0.05760191008448601,-0.306334912776947,20,0.0,0.0,177,-2.445221424102783,-0.018923690542578697,0.1409393697977066,0.004735580645501614,0.001522972248494625,0.004488135688006878,-0.9999775886535645
21029.66,0.002209101803600788,-0.005351675674319267,0.0045607383362948895,0.026935473084449768,-0.01569831557571888,0.9982077479362488,0.03461722657084465,0.036651309579610825,-0.2088956981897354,20,0.0,0.0,177,-2.445284605026245,-0.01899048686027527,0.14081120491027832,0.004860976245254278,0.0012684535467997193,0.004617650993168354,-0.9999768137931824
21031.948,0.002264425391331315,-0.005461515858769417,0.016365177929401398,0.027057303115725517,-0.015562360174953938,0.9984982013702393,-0.06646984815597534,0.07512924075126648,0.0917607843875885,20,0.0,0.0,177,-2.445284605026245,-0.01899048686027527,0.14081120491027832,0.004860976245254278,0.0012684535467997193,0.004617650993168354,-0.9999768137931824
21033.627,0.002264425391331315,-0.005461515858769417,0.016365177929401398,0.026636647060513496,-0.015268930234014988,0.99894779920578,-0.23940718173980713,0.12423861771821976,0.21185079216957092,20,0.0,0.0,177,-2.445122718811035,-0.0188433900475502,0.14109709858894348,0.004535086452960968,0.0015071055386215448,0.004774719476699829,-0.9999772310256958
21035.601,0.00209348788484931,-0.005321374163031578,0.02785327658057213,0.025762995705008507,-0.015041881240904331,0.9994605183601379,-0.1787467747926712,-0.008733609691262245,0.003093321807682514,20,0.0,0.0,177,-2.445122718811035,-0.0188433900475502,0.14109709858894348,0.004535086452960968,0.0015071055386215448,0.004774719476699829,-0.9999772310256958
21037.588,0.00209348788484931,-0.005321374163031578,0.02785327658057213,0.025212755426764488,-0.015047159977257252,0.999701201915741,0.09213787317276001,-0.24899309873580933,-0.17912311851978302,20,0.0,0.0,177,-2.445122718811035,-0.0188433900475502,0.14109709858894348,0.004535086452960968,0.0015071055386215448,0.004774719476699829,-0.9999772310256958
21039.563,0.0015117267612367868,-0.004808228928595781,0.02784896083176136,0.025136278942227364,-0.01513645052909851,0.9998186826705933,0.10780385136604309,-0.23487776517868042,-0.23336338996887207,20,0.0,0.0,177,-2.4452707767486572,-0.018968256190419197,0.14082039892673492,0.004465160891413689,0.0016232007183134556,0.004758463706821203,-0.9999774694442749
21041.625,0.0025084521621465683,-0.005252908915281296,-0.00630541704595089,0.025121936574578285,-0.015149202197790146,0.9998514652252197,-0.043962810188531876,0.001913163112476468,-0.23308713734149933,20,0.0,0.0,177,-2.4452707767486572,-0.018968256190419197,0.14082039892673492,0.004465160891413689,0.0016232007183134556,0.004758463706821203,-0.9999774694442749
21043.526,0.0025084521621465683,-0.005252908915281296,-0.00630541704595089,0.025256073102355003,-0.015192852355539799,0.9998601675033569,0.0060742138884961605,0.175648033618927,-0.20825107395648956,20,0.0,0.0,177,-2.4452707767486572,-0.018968256190419197,0.14082039892673492,0.004465160891413689,0.0016232007183134556,0.004758463706821203,-0.9999774694442749
21045.509,0.0025084521621465683,-0.005252908915281296,-0.00630541704595089,0.02573588117957115,-0.015336462296545506,1.0001829862594604,0.0842951312661171,0.02811574749648571,-0.11385452747344971,20,0.0,0.0,177,-2.445219039916992,-0.018844304606318474,0.1410292536020279,0.005088545382022858,0.0013908767141401768,0.004244974814355373,-0.9999771118164062
21047.488,0.00235503981821239,-0.005126824602484703,0.0037834206596016884,0.026516178622841835,-0.015405980870127678,1.0004628896713257,0.10906045138835907,-0.22161328792572021,0.01748698018491268,20,0.0,0.0,177,-2.445219039916992,-0.018844304606318474,0.1410292536020279,0.005088545382022858,0.0013908767141401768,0.004244974814355373,-0.9999771118164062
21049.479,0.002614811295643449,-0.005299006588757038,0.003826000727713108,0.02721577137708664,-0.015435184352099895,1.0003058910369873,0.0398038774728775,-0.31173330545425415,0.002967197448015213,20,0.0,0.0,177,-2.445219039916992,-0.018844304606318474,0.1410292536020279,0.005088545382022858,0.0013908767141401768,0.004244974814355373,-0.9999771118164062
21051.776,0.0024411752820014954,-0.005170734133571386,0.015152227133512497,0.027321891859173775,-0.015643810853362083,0.9997776746749878,-0.022422833368182182,-0.3089436888694763,-0.10737044364213943,20,0.0,0.0,177,-2.4452409744262695,-0.018995150923728943,0.140857994556427,0.004923430271446705,0.001192163792438805,0.004550387617200613,-0.9999768733978271
21053.432,0.0024411752820014954,-0.005170734133571386,0.015152227133512497,0.026843827217817307,-0.0158961471170187,0.999149739742279,0.08227300643920898,-0.14549784362316132,-0.27287185192108154,20,0.0,0.0,177,-2.4452409744262695,-0.018995150923728943,0.140857994556427,0.004923430271446705,0.001192163792438805,0.004550387617200613,-0.9999768733978271
21055.425,0.0024411752820014954,-0.005170734133571386,0.015152227133512497,0.02616802603006363,-0.01605423167347908,0.998879611492157,0.1949378401041031,-0.005124546587467194,-0.2741503417491913,20,0.0,0.0,177,-2.4452409744262695,-0.018995150923728943,0.140857994556427,0.004923430271446705,0.001192163792438805,0.004550387617200613,-0.9999768733978271
21057.401,0.0024411752820014954,-0.005170734133571386,0.015152227133512497,0.02556774951517582,-0.016100069507956505,0.9987797737121582,0.18257641792297363,-0.10835420340299606,-0.07196270674467087,20,0.0,0.0,177,-2.4452381134033203,-0.01891377568244934,0.14090532064437866,0.004720677621662617,0.0016520887147635221,0.004475054331123829,-0.9999775290489197
21059.375,0.0028862536419183016,-0.00524600176140666,-0.012274639680981636,0.025234539061784744,-0.016269607469439507,0.998595118522644,0.19894258677959442,-0.19306953251361847,-0.0015561181353405118,20,0.0,0.0,177,-2.4452381134033203,-0.01891377568244934,0.14090532064437866,0.004720677621662617,0.0016520887147635221,0.004475054331123829,-0.9999775290489197
21061.436,0.0028862536419183016,-0.00524600176140666,-0.012274639680981636,0.024965209886431694,-0.016628073528409004,0.9982872605323792,0.2677958011627197,-0.031480662524700165,-0.13468588888645172,20,0.0,0.0,177,-2.445136547088623,-0.018830152228474617,0.14107568562030792,0.004545592702925205,0.0015826195012778044,0.004780443850904703,-0.9999769926071167
21063.338,0.002722916193306446,-0.005110791884362698,-0.0016053345752879977,0.02474365010857582,-0.016953950747847557,0.9980396628379822,0.25872713327407837,0.0671272948384285,-0.1008603423833847,20,0.0,0.0,177,-2.445136547088623,-0.018830152228474617,0.14107568562030792,0.004545592702925205,0.0015826195012778044,0.004780443850904703,-0.9999769926071167
21065.319,0.002722916193306446,-0.005110791884362698,-0.0016053345752879977,0.024445079267024994,-0.017056697979569435,0.9979775547981262,0.06387198716402054,-0.003960066940635443,0.008473489433526993,20,0.0,0.0,177,-2.445136547088623,-0.018830152228474617,0.14107568562030792,0.004545592702925205,0.0015826195012778044,0.004780443850904703,-0.9999769926071167
21067.303,0.002722916193306446,-0.005110791884362698,-0.0016053345752879977,0.02427559904754162,-0.017001064494252205,0.9981231093406677,-0.11889369040727615,-0.03211091831326485,0.11996323615312576,20,0.0,0.0,177,-2.445145606994629,-0.018837355077266693,0.14107324182987213,0.005046854726970196,0.0011555621167644858,0.004411996807903051,-0.9999768733978271
21069.282,0.002754085697233677,-0.005316232796758413,0.008620955049991608,0.02454858273267746,-0.01694633811712265,0.9983763098716736,-0.031155642122030258,-0.006132406182587147,0.14349836111068726,20,0.0,0.0,177,-2.445145606994629,-0.018837355077266693,0.14107324182987213,0.005046854726970196,0.0011555621167644858,0.004411996807903051,-0.9999768733978271
21071.573,0.002754085697233677,-0.005316232796758413,0.008620955049991608,0.025227148085832596,-0.016884345561265945,0.9986197352409363,0.03759947791695595,-0.22875528037548065,0.01667586714029312,20,0.0,0.0,177,-2.445145606994629,-0.018837355077266693,0.14107324182987213,0.005046854726970196,0.0011555621167644858,0.004411996807903051,-0.9999768733978271
21073.248,0.002754085697233677,-0.005316232796758413,0.008620955049991608,0.02596123144030571,-0.016892265528440475,0.99881511926651,-0.009342651814222336,-0.3115018904209137,-0.15435300767421722,20,0.0,0.0,177,-2.4451491832733154,-0.01888657733798027,0.14096781611442566,0.00454874848946929,0.0014478603843599558,0.004800671711564064,-0.999977171421051
21075.227,0.0025771481450647116,-0.005175272934138775,0.020278818905353546,0.026387277990579605,-0.017021290957927704,0.999076783657074,-0.005535084754228592,-0.1255141794681549,-0.24054864048957825,20,0.0,0.0,177,-2.4451491832733154,-0.01888657733798027,0.14096781611442566,0.00454874848946929,0.0014478603843599558,0.004800671711564064,-0.999977171421051
21077.213,0.0025771481450647116,-0.005175272934138775,0.020278818905353546,0.026305701583623886,-0.01708739437162876,0.9992814064025879,0.13368912041187286,-0.005598928313702345,-0.37998029589653015,20,0.0,0.0,177,-2.445169687271118,-0.018831396475434303,0.14106020331382751,0.004675895906984806,0.0015976839931681752,0.004500304348766804,-0.9999776482582092
21079.186,0.0025771481450647116,-0.005175272934138775,0.020278818905353546,0.02576085552573204,-0.01707218587398529,0.9991657137870789,0.18435730040073395,0.0591532438993454,-0.39869704842567444,20,0.0,0.0,177,-2.445169687271118,-0.018831396475434303,0.14106020331382751,0.004675895906984806,0.0015976839931681752,0.004500304348766804,-0.9999776482582092
21081.249,0.002869770396500826,-0.005313259549438953,-0.009025085717439651,0.02504008635878563,-0.01697147823870182,0.9988752007484436,0.07152414321899414,0.1737232357263565,-0.1873665750026703,20,0.0,0.0,177,-2.445169687271118,-0.018831396475434303,0.14106020331382751,0.004675895906984806,0.0015976839931681752,0.004500304348766804,-0.9999776482582092
21083.15,0.002869770396500826,-0.005313259549438953,-0.009025085717439651,0.0247198436409235,-0.016904683783650398,0.9987203478813171,-0.040198054164648056,0.21642695367336273,0.09789303690195084,20,0.0,0.0,177,-2.4451706409454346,-0.01885928399860859,0.1410323977470398,0.004893250297755003,0.0013699615374207497,0.004896329250186682,-0.9999751448631287
21085.14,0.0026992482598870993,-0.005175764672458172,0.00199059396982193,0.024880407378077507,-0.016892442479729652,0.998807966709137,-0.07159458100795746,0.1439468115568161,0.19389796257019043,20,0.0,0.0,177,-2.4451706409454346,-0.01885928399860859,0.1410323977470398,0.004893250297755003,0.0013699615374207497,0.004896329250186682,-0.9999751448631287
21087.112,0.0026992482598870993,-0.005175764672458172,0.00199059396982193,0.02521662600338459,-0.016892243176698685,0.9989453554153442,-0.09853552281856537,0.016054488718509674,0.013455124571919441,20,0.0,0.0,177,-2.4451706409454346,-0.01885928399860859,0.1410323977470398,0.004893250297755003,0.0013699615374207497,0.004896329250186682,-0.9999751448631287
21089.104,0.0026992482598870993,-0.005175764672458172,0.00199059396982193,0.02536921761929989,-0.016662081703543663,0.9991175532341003,0.005647743120789528,0.027787789702415466,-0.07879360765218735,20,0.0,0.0,177,-2.445154905319214,-0.018800141289830208,0.14108684659004211,0.004582265857607126,0.001618395559489727,0.004608092829585075,-0.9999775886535645
21091.392,0.0027834034990519285,-0.0054208701476454735,0.012620756402611732,0.02544420212507248,-0.01637771539390087,0.9993200302124023,0.16685841977596283,0.17782509326934814,-0.06933709233999252,20,0.0,0.0,177,-2.445154905319214,-0.018800141289830208,0.14108684659004211,0.004582265857607126,0.001618395559489727,0.004608092829585075,-0.9999775886535645
21093.066,0.0027834034990519285,-0.0054208701476454735,0.012620756402611732,0.025674909353256226,-0.016263842582702637,0.9996985197067261,0.009488181211054325,0.24807067215442657,-0.08217944204807281,20,0.0,0.0,177,-2.445154905319214,-0.018800141289830208,0.14108684659004211,0.004582265857607126,0.001618395559489727,0.004608092829585075,-0.9999775886535645
21095.041,0.0027834034990519285,-0.0054208701476454735,0.012620756402611732,0.02587355487048626,-0.016181305050849915,1.0002738237380981,-0.1534295678138733,0.1577271670103073,-0.16054698824882507,20,0.0,0.0,177,-2.4452621936798096,-0.018925001844763756,0.14081600308418274,0.004326083231717348,0.0015707784332334995,0.004785488825291395,-0.9999780058860779
21097.018,0.002590488875284791,-0.005279036238789558,0.024857204407453537,0.02615225873887539,-0.016002779826521873,1.000814437866211,0.025721421465277672,-0.001359358779154718,-0.08998677134513855,20,0.0,0.0,177,-2.4452621936798096,-0.018925001844763756,0.14081600308418274,0.004326083231717348,0.0015707784332334995,0.004785488825291395,-0.9999780058860779
21099.017,0.002590488875284791,-0.005279036238789558,0.024857204407453537,0.02650759555399418,-0.01600170135498047,1.001236915588379,0.2543327808380127,-0.1257249414920807,-0.13396082818508148,20,0.0,0.0,177,-2.4452621936798096,-0.018925001844763756,0.14081600308418274,0.004326083231717348,0.0015707784332334995,0.004785488825291395,-0.9999780058860779
21101.096,0.002590488875284791,-0.005279036238789558,0.024857204407453537,0.02664174698293209,-0.016187671571969986,1.0012801885604858,0.2484995275735855,-0.21245504915714264,-0.2887612283229828,20,0.0,0.0,177,-2.4451446533203125,-0.018821900710463524,0.14109745621681213,0.004699532873928547,0.0015334628988057375,0.004442259203642607,-0.9999779462814331
21102.96,0.002879832871258259,-0.005337192676961422,-0.006732496432960033,0.02679264359176159,-0.01632337085902691,1.0008394718170166,-0.012087407521903515,-0.18281033635139465,-0.15624801814556122,20,0.0,0.0,177,-2.4451446533203125,-0.018821900710463524,0.14109745621681213,0.004699532873928547,0.0015334628988057375,0.004442259203642607,-0.9999779462814331
21104.941,0.002879832871258259,-0.005337192676961422,-0.006732496432960033,0.027060799300670624,-0.01640983857214451,1.0002497434616089,-0.21876026690006256,0.04838268458843231,0.0441393107175827,20,0.0,0.0,177,-2.4452619552612305,-0.018990444019436836,0.1408178061246872,0.004477632697671652,0.0016997742932289839,0.0045484318397939205,-0.9999781847000122
21106.93,0.002696065464988351,-0.005209619645029306,0.0047577545046806335,0.02715662680566311,-0.016387728974223137,0.9996592402458191,-0.11618240922689438,0.1871037483215332,-0.003356044879183173,20,0.0,0.0,177,-2.4452619552612305,-0.018990444019436836,0.1408178061246872,0.004477632697671652,0.0016997742932289839,0.0045484318397939205,-0.9999781847000122
21108.904,0.002696065464988351,-0.005209619645029306,0.0047577545046806335,0.027231857180595398,-0.016382673755288124,0.9992085695266724,0.08393517136573792,0.100548155605793,-0.003736835205927491,20,0.0,0.0,177,-2.4452619552612305,-0.018990444019436836,0.1408178061246872,0.004477632697671652,0.0016997742932289839,0.0045484318397939205,-0.9999781847000122
21111.235,0.002696065464988351,-0.005209619645029306,0.0047577545046806335,0.026968548074364662,-0.016284741461277008,0.9990677237510681,0.1300388127565384,-0.13115747272968292,0.1494872272014618,20,0.0,0.0,177,-2.445164680480957,-0.0188489630818367,0.14096397161483765,0.0045683798380196095,0.0013539543142542243,0.0047754403203725815,-0.9999773502349854
21112.866,0.00291484035551548,-0.00534760532900691,0.01778230629861355,0.026220671832561493,-0.015923166647553444,0.9989948272705078,-0.04579034820199013,-0.32629579305648804,0.17457149922847748,20,0.0,0.0,177,-2.445164680480957,-0.0188489630818367,0.14096397161483765,0.0045683798380196095,0.0013539543142542243,0.0047754403203725815,-0.9999773502349854
21114.847,0.00291484035551548,-0.00534760532900691,0.01778230629861355,0.026069307699799538,-0.016268830746412277,0.9992340803146362,-0.08480791002511978,-0.19767671823501587,-0.24655437469482422,20,0.0,0.0,177,-2.445164680480957,-0.0188489630818367,0.14096397161483765,0.0045683798380196095,0.0013539543142542243,0.0047754403203725815,-0.9999773502349854
21116.828,0.00291484035551548,-0.00534760532900691,0.01778230629861355,0.02685031108558178,-0.017065608873963356,0.9998604655265808,-0.06819269806146622,0.17521962523460388,-1.2564719915390015,20,0.0,0.0,177,-2.444611072540283,-0.018842477351427078,0.1413147896528244,0.0046515134163200855,-0.00014406924310605973,0.004516284912824631,-0.9999789595603943
21118.817,0.0027497701812535524,-0.005192733835428953,0.030355466529726982,0.029316356405615807,-0.0191505067050457,1.0001944303512573,-0.12827299535274506,0.5289513468742371,-2.987872838973999,20,0.0,0.0,177,-2.444611072540283,-0.018842477351427078,0.1413147896528244,0.0046515134163200855,-0.00014406924310605973,0.004516284912824631,-0.9999789595603943
21120.921,0.003180768107995391,-0.005045670084655285,-0.01332840882241726,0.03435905650258064,-0.02300538681447506,1.000075101852417,-0.24179738759994507,0.8043413162231445,-6.008632183074951,20,0.0,0.0,177,-2.444611072540283,-0.018842477351427078,0.1413147896528244,0.0046515134163200855,-0.00014406924310605973,0.004516284912824631,-0.9999789595603943
21122.771,0.003637368557974696,-0.005431326571851969,-0.013325720094144344,0.041090693324804306,-0.025303306058049202,0.9995130300521851,-0.5046130418777466,0.9518650770187378,-9.105072021484375,20,0.0,0.0,177,-2.445133686065674,-0.018830569460988045,0.1411111056804657,0.004865173250436783,0.0012119999155402184,0.004784905817359686,-0.9999760389328003
21124.753,0.0034481750335544348,-0.005280079785734415,-0.0013955787289887667,0.046841446310281754,-0.024769214913249016,0.9985519647598267,-0.6529868245124817,0.9575434327125549,-9.202580451965332,20,0.0,0.0,177,-2.445133686065674,-0.018830569460988045,0.1411111056804657,0.004865173250436783,0.0012119999155402184,0.004784905817359686,-0.9999760389328003
21126.748,0.0034481750335544348,-0.005280079785734415,-0.0013955787289887667,0.05029517784714699,-0.0238612312823534,0.9972677826881409,-0.3869606554508209,1.163537859916687,-6.096658229827881,20,0.0,0.0,177,-2.445133686065674,-0.018830569460988045,0.1411111056804657,0.004865173250436783,0.0012119999155402184,0.004784905817359686,-0.9999760389328003
21128.715,0.0034481750335544348,-0.005280079785734415,-0.0013955787289887667,0.05200430750846863,-0.02298579551279545,0.9958428740501404,0.09610400348901749,1.6338887214660645,-2.7194535732269287,20,0.0,0.0,177,-2.445143222808838,-0.018806206062436104,0.14108264446258545,0.004488087259232998,0.0015096160350367427,0.004855823237448931,-0.9999770522117615
21131.053,0.0032661815639585257,-0.005137209314852953,0.010166972875595093,0.053054079413414,-0.018862349912524223,0.9944889545440674,0.4522605538368225,1.989202857017517,0.6026839017868042,20,0.0,0.0,177,-2.445143222808838,-0.018806206062436104,0.14108264446258545,0.004488087259232998,0.0015096160350367427,0.004855823237448931,-0.9999770522117615
21132.678,0.0008859892841428518,-0.0037238846998661757,0.00990073848515749,0.05130402743816376,-0.013670746237039566,0.9935829639434814,0.7412219047546387,1.9405796527862549,5.597939968109131,20,0.0,0.0,177,-2.4450790882110596,-0.018834592774510384,0.1411074697971344,0.005003573838621378,0.0009860048303380609,0.004475361201912165,-0.9999769926071167
21134.667,0.0006804951117374003,-0.0035603493452072144,0.02293897047638893,0.04376302659511566,-0.011182362213730812,0.9937255382537842,0.9088284373283386,1.603801965713501,10.925704956054688,20,0.0,0.0,177,-2.4450790882110596,-0.018834592774510384,0.1411074697971344,0.005003573838621378,0.0009860048303380609,0.004475361201912165,-0.9999769926071167
21136.641,0.0006804951117374003,-0.0035603493452072144,0.02293897047638893,0.03083397075533867,-0.010030582547187805,0.994826078414917,0.9055495262145996,1.2033097743988037,13.806473731994629,20,0.0,0.0,177,-2.4450790882110596,-0.018834592774510384,0.1411074697971344,0.005003573838621378,0.0009860048303380609,0.004475361201912165,-0.9999769926071167
21138.628,0.0006804951117374003,-0.0035603493452072144,0.02293897047638893,0.015096389688551426,-0.008149312809109688,0.9968670010566711,0.780402660369873,0.9158889651298523,13.520559310913086,20,0.0,0.0,177,-2.445075273513794,-0.01883729174733162,0.14109383523464203,0.004877761006355286,0.0009747397853061557,0.0045557087287306786,-0.9999772310256958
21140.721,0.0006804951117374003,-0.0035603493452072144,0.02293897047638893,-0.0013901024358347058,-0.008252439089119434,0.9995045065879822,0.7103453874588013,0.6230258345603943,10.570558547973633,20,0.0,0.0,177,-2.445075273513794,-0.01883729174733162,0.14109383523464203,0.004877761006355286,0.0009747397853061557,0.0045557087287306786,-0.9999772310256958
21142.594,-0.0005172130186110735,-0.002337108366191387,-0.010071163065731525,-0.014649329707026482,-0.012182899750769138,1.0024408102035522,0.6175045371055603,0.2757769227027893,5.250823497772217,20,0.0,0.0,177,-2.445075273513794,-0.01883729174733162,0.14109383523464203,0.004877761006355286,0.0009747397853061557,0.0045557087287306786,-0.9999772310256958
21144.566,-0.0007270878995768726,-0.0022006798535585403,0.001858983188867569,-0.0206572525203228,-0.0170053169131279,1.0049864053726196,0.2864244878292084,0.0720081627368927,-1.296981692314148,20,0.0,0.0,177,-2.445272445678711,-0.019025811925530434,0.14084456861019135,0.004766675177961588,0.0010689155897125602,0.004736838396638632,-0.9999769330024719
21146.556,-0.0007270878995768726,-0.0022006798535585403,0.001858983188867569,-0.01967473141849041,-0.019856147468090057,1.0066046714782715,-0.345820814371109,-0.06603884696960449,-6.64739465713501,20,0.0,0.0,177,-2.445272445678711,-0.019025811925530434,0.14084456861019135,0.004766675177961588,0.0010689155897125602,0.004736838396638632,-0.9999769330024719
21148.537,-0.0007270878995768726,-0.0022006798535585403,0.001858983188867569,-0.013262207619845867,-0.021777383983135223,1.0074005126953125,-0.7386592626571655,-0.20012016594409943,-9.296350479125977,20,0.0,0.0,177,-2.4452126026153564,-0.018956180661916733,0.14083169400691986,0.0046601914800703526,0.001403666683472693,0.0044694934040308,-0.999978244304657
21150.854,-0.0009270016453228891,-0.002065829234197736,0.013423197902739048,-0.003100726054981351,-0.02366487868130207,1.0075432062149048,-0.6625764966011047,-0.4610312581062317,-9.560032844543457,20,0.0,0.0,177,-2.4452126026153564,-0.018956180661916733,0.14083169400691986,0.0046601914800703526,0.001403666683472693,0.0044694934040308,-0.999978244304657
21152.49,-0.003070318140089512,-0.0007046483224257827,0.01386019866913557,0.008381238207221031,-0.024802658706903458,1.0070879459381104,-0.49640947580337524,-0.6887192726135254,-8.303204536437988,20,0.0,0.0,177,-2.4452126026153564,-0.018956180661916733,0.14083169400691986,0.0046601914800703526,0.001403666683472693,0.0044694934040308,-0.999978244304657
21154.471,-0.003070318140089512,-0.0007046483224257827,0.01386019866913557,0.01968095451593399,-0.02460830844938755,1.0062785148620605,-0.3186047077178955,-0.7732751369476318,-6.0880513191223145,20,0.0,0.0,177,-2.445246458053589,-0.018988529220223427,0.1408938318490982,0.004697635769844055,0.001225467654876411,0.0049800509586930275,-0.9999758005142212
21156.453,-0.0032967019360512495,-0.000556261686142534,0.02687021903693676,0.029733670875430107,-0.023579532280564308,1.005179524421692,-0.07493266463279724,-0.7663231492042542,-3.2917213439941406,20,0.0,0.0,177,-2.445246458053589,-0.018988529220223427,0.1408938318490982,0.004697635769844055,0.001225467654876411,0.0049800509586930275,-0.9999758005142212
21158.443,-0.0032967019360512495,-0.000556261686142534,0.02687021903693676,0.03774192929267883,-0.02181313931941986,1.0035758018493652,0.08755762875080109,-0.6051841974258423,-0.32120048999786377,20,0.0,0.0,177,-2.445246458053589,-0.018988529220223427,0.1408938318490982,0.004697635769844055,0.001225467654876411,0.0049800509586930275,-0.9999758005142212
21160.551,-0.0032967019360512495,-0.000556261686142534,0.02687021903693676,0.04303255304694176,-0.01862487383186817,1.0014607906341553,0.22881683707237244,-0.31802231073379517,2.429008960723877,20,0.0,0.0,177,-2.4451427459716797,-0.018874941393733025,0.14109531044960022,0.005055648740381002,0.0012460013385862112,0.004359190817922354,-0.9999769926071167
21162.396,-0.0032967019360512495,-0.000556261686142534,0.02687021903693676,0.04470878839492798,-0.01438938733190298,0.9990684986114502,0.4869462549686432,-0.014164519496262074,5.0638909339904785,20,0.0,0.0,177,-2.4451427459716797,-0.018874941393733025,0.14109531044960022,0.005055648740381002,0.0012460013385862112,0.004359190817922354,-0.9999769926071167
21164.38,-0.004074827767908573,0.00036580950836651027,-0.010414158925414085,0.04219077154994011,-0.01075214147567749,0.9969671368598938,0.8240448832511902,0.07332087308168411,7.491114139556885,20,0.0,0.0,177,-2.4451427459716797,-0.018874941393733025,0.14109531044960022,0.005055648740381002,0.0012460013385862112,0.004359190817922354,-0.9999769926071167
21166.36,-0.004074827767908573,0.00036580950836651027,-0.010414158925414085,0.03607038035988808,-0.008303435519337654,0.9954479336738586,0.9228626489639282,-0.010059762746095657,8.854591369628906,20,0.0,0.0,177,-2.4451968669891357,-0.018945882096886635,0.14084550738334656,0.004710704553872347,0.0014418493956327438,0.0045941597782075405,-0.9999772906303406
21168.343,-0.004282589070498943,0.0005060657858848572,0.0008473331690765917,0.027672061696648598,-0.007353778462857008,0.9944793581962585,0.7540065050125122,-0.1598774790763855,8.450215339660645,20,0.0,0.0,177,-2.4451968669891357,-0.018945882096886635,0.14084550738334656,0.004710704553872347,0.0014418493956327438,0.0045941597782075405,-0.9999772906303406
21170.693,-0.004282589070498943,0.0005060657858848572,0.0008473331690765917,0.018538309261202812,-0.007963225245475769,0.9941546320915222,0.5094442963600159,-0.3776785731315613,6.24950647354126,20,0.0,0.0,177,-2.4451968669891357,-0.018945882096886635,0.14084550738334656,0.004710704553872347,0.0014418493956327438,0.0045941597782075405,-0.9999772906303406
21172.304,-0.006253453437238932,0.001814162591472268,0.0005306841339915991,0.011049175634980202,-0.009423167444765568,0.9948365688323975,0.26083287596702576,-0.47036150097846985,2.935220956802368,20,0.0,0.0,177,-2.4451675415039062,-0.01891893334686756,0.140925332903862,0.0045760637149214745,0.001396454288624227,0.00474056089296937,-0.9999773502349854
21174.296,-0.006483572069555521,0.0019694981165230274,0.013171475380659103,0.0071303281001746655,-0.011089606210589409,0.9962509870529175,0.1452351063489914,-0.6207375526428223,-0.04188714176416397,20,0.0,0.0,177,-2.4451675415039062,-0.01891893334686756,0.140925332903862,0.0045760637149214745,0.001396454288624227,0.00474056089296937,-0.9999773502349854
21176.277,-0.006483572069555521,0.0019694981165230274,0.013171475380659103,0.0066993022337555885,-0.012622092850506306,0.9976953268051147,-0.03932622820138931,-0.8389790058135986,-1.338507890701294,20,0.0,0.0,177,-2.4452242851257324,-0.018951788544654846,0.14080578088760376,0.004610663279891014,0.0015530800446867943,0.004521866329014301,-0.9999779462814331
21178.258,-0.006705204024910927,0.0021133117843419313,0.025372304022312164,0.008677289821207523,-0.013874380849301815,0.9989240169525146,-0.15266095101833344,-0.928290843963623,-0.9910337328910828,20,0.0,0.0,177,-2.4452242851257324,-0.018951788544654846,0.14080578088760376,0.004610663279891014,0.0015530800446867943,0.004521866329014301,-0.9999779462814331
21180.357,-0.006705204024910927,0.0021133117843419313,0.025372304022312164,0.011429459787905216,-0.014823432080447674,1.0000925064086914,-0.2115539163351059,-0.9127546548843384,0.09973303973674774,20,0.0,0.0,177,-2.4452242851257324,-0.018951788544654846,0.14080578088760376,0.004610663279891014,0.0015530800446867943,0.004521866329014301,-0.9999779462814331
21182.211,-0.007006194442510605,0.002726918552070856,-0.021972814574837685,0.01305576041340828,-0.01564595103263855,1.0011265277862549,-0.3316129148006439,-1.0390089750289917,1.107421875,20,0.0,0.0,177,-2.4451653957366943,-0.018920861184597015,0.1411041021347046,0.00467459112405777,0.0012026126496493816,0.0048079644329845905,-0.9999768733978271
21184.192,-0.007216999307274818,0.002870133612304926,-0.010958847589790821,0.013284335844218731,-0.01619749888777733,1.0020091533660889,-0.5095078349113464,-1.242746114730835,1.1648213863372803,20,0.0,0.0,177,-2.4451653957366943,-0.018920861184597015,0.1411041021347046,0.00467459112405777,0.0012026126496493816,0.0048079644329845905,-0.9999768733978271
21186.173,-0.007216999307274818,0.002870133612304926,-0.010958847589790821,0.013086000457406044,-0.016351327300071716,1.0029014348983765,-0.5674822926521301,-1.2237037420272827,0.027590710669755936,20,0.0,0.0,177,-2.4451653957366943,-0.018920861184597015,0.1411041021347046,0.00467459112405777,0.0012026126496493816,0.0048079644329845905,-0.9999768733978271
21188.164,-0.007216999307274818,0.002870133612304926,-0.010958847589790821,0.013627319596707821,-0.01611739583313465,1.003741979598999,-0.5464279055595398,-1.121181845664978,-1.4937058687210083,20,0.0,0.0,177,-2.445244550704956,-0.01895744353532791,0.14084936678409576,0.004544633906334639,0.001465597189962864,0.004712550900876522,-0.9999775290489197
21190.48,-0.007421971298754215,0.003001846605911851,-0.0002906596346292645,0.01582224667072296,-0.015493770129978657,1.0045400857925415,-0.5859069228172302,-1.0976701974868774,-2.6044445037841797,20,0.0,0.0,177,-2.445244550704956,-0.01895744353532791,0.14084936678409576,0.004544633906334639,0.001465597189962864,0.004712550900876522,-0.9999775290489197
21192.117,-0.009246193803846836,0.004247099161148071,-9.903350292006508e-05,0.01921232044696808,-0.014833052642643452,1.0054184198379517,-0.651622474193573,-1.0914630889892578,-3.2166783809661865,20,0.0,0.0,177,-2.445244550704956,-0.01895744353532791,0.14084936678409576,0.004544633906334639,0.001465597189962864,0.004712550900876522,-0.9999775290489197
21194.097,-0.009246193803846836,0.004247099161148071,-9.903350292006508e-05,0.02303185872733593,-0.014486168511211872,1.006118655204773,-0.5946817398071289,-1.173388123512268,-3.287655830383301,20,0.0,0.0,177,-2.4452707767486572,-0.018977008759975433,0.1408008486032486,0.004863113164901733,0.0013450103579089046,0.004876638762652874,-0.9999754428863525
21196.08,-0.009471462108194828,0.004388249013572931,0.011832127347588539,0.026597928255796432,-0.014335520565509796,1.0065743923187256,-0.5422265529632568,-1.324885606765747,-2.914782762527466,20,0.0,0.0,177,-2.4452707767486572,-0.018977008759975433,0.1408008486032486,0.004863113164901733,0.0013450103579089046,0.004876638762652874,-0.9999754428863525
21198.07,-0.009471462108194828,0.004388249013572931,0.011832127347588539,0.029248865321278572,-0.014236897230148315,1.0069332122802734,-0.6569162011146545,-1.340650200843811,-2.5588772296905518,20,0.0,0.0,177,-2.4452707767486572,-0.018977008759975433,0.1408008486032486,0.004863113164901733,0.0013450103579089046,0.004876638762652874,-0.9999754428863525
21200.163,-0.009689521044492722,0.0045231422409415245,0.023379653692245483,0.030248790979385376,-0.014061257243156433,1.0069844722747803,-0.7335831522941589,-1.5173661708831787,-2.3054895401000977,20,0.0,0.0,177,-2.445314407348633,-0.01894359476864338,0.14083121716976166,0.00460823206230998,0.00176108512096107,0.004544530063867569,-0.9999775886535645
21202.029,-0.010801934637129307,0.00555981183424592,0.02391088753938675,0.02977387048304081,-0.014195987023413181,1.006559133529663,-0.6152182221412659,-1.7138670682907104,-2.0313663482666016,20,0.0,0.0,177,-2.445314407348633,-0.01894359476864338,0.14083121716976166,0.00460823206230998,0.00176108512096107,0.004544530063867569,-0.9999775886535645
21204.014,-0.009794856421649456,0.005075282882899046,-0.020855413749814034,0.02922840416431427,-0.015765657648444176,1.0055373907089233,-0.5512029528617859,-1.4306505918502808,-2.459713935852051,20,0.0,0.0,177,-2.4452030658721924,-0.01886707916855812,0.14104489982128143,0.004722930956631899,0.0013077312614768744,0.005017393734306097,-0.9999754428863525
21205.986,-0.010002541355788708,0.005213105119764805,-0.010379539802670479,0.03025045245885849,-0.01885044388473034,1.0034676790237427,-0.6436904668807983,-1.0182005167007446,-4.137302398681641,20,0.0,0.0,177,-2.4452030658721924,-0.01886707916855812,0.14104489982128143,0.004722930956631899,0.0013077312614768744,0.005017393734306097,-0.9999754428863525
21207.967,-0.010002541355788708,0.005213105119764805,-0.010379539802670479,0.0302256029099226,-0.020641056820750237,1.0001412630081177,-0.8293643593788147,-0.7335087060928345,-5.495181083679199,20,0.0,0.0,177,-2.4452030658721924,-0.01886707916855812,0.14104489982128143,0.004722930956631899,0.0013077312614768744,0.005017393734306097,-0.9999754428863525
21210.305,-0.010002541355788708,0.005213105119764805,-0.010379539802670479,0.02529102936387062,-0.021727265790104866,0.9965876340866089,-0.8119856715202332,-0.31971821188926697,-4.411073684692383,20,0.0,0.0,177,-2.444688558578491,-0.01892348751425743,0.141331747174263,0.004895410034805536,-0.00024371460312977433,0.004444772843271494,-0.9999781250953674
21211.926,-0.011942495591938496,0.006573996506631374,0.0017610061913728714,0.0326886884868145,-0.022710399702191353,0.9931427836418152,-0.46688923239707947,0.0035852049477398396,-1.663469672203064,20,0.0,0.0,177,-2.444688558578491,-0.01892348751425743,0.141331747174263,0.004895410034805536,-0.00024371460312977433,0.004444772843271494,-0.9999781250953674
21213.908,-0.011942495591938496,0.006573996506631374,0.0017610061913728714,0.06693567335605621,-0.020733872428536415,0.9899083375930786,-0.14579935371875763,0.3813014328479767,2.359144449234009,20,0.0,0.0,177,-2.444688558578491,-0.01892348751425743,0.141331747174263,0.004895410034805536,-0.00024371460312977433,0.004444772843271494,-0.9999781250953674
21215.888,-0.011942495591938496,0.006573996506631374,0.0017610061913728714,0.10353194922208786,-0.012693745084106922,0.9867240190505981,0.019413357600569725,2.3190367221832275,8.85067367553711,20,0.0,0.0,177,-2.4453234672546387,-0.01898624747991562,0.14083480834960938,0.004651006776839495,0.0016094766324386,0.0051354095339775085,-0.99997478723526
21217.87,-0.012162862345576286,0.006699934136122465,0.013064125552773476,0.094292551279068,-0.005521208513528109,0.983598530292511,0.11882127821445465,4.272459983825684,14.267983436584473,20,0.0,0.0,177,-2.4453234672546387,-0.01898624747991562,0.14083480834960938,0.004651006776839495,0.0016094766324386,0.0051354095339775085,-0.99997478723526
21219.988,-0.012162862345576286,0.006699934136122465,0.013064125552773476,0.0210318174213171,-0.01238507591187954,0.9882901310920715,-0.2257087379693985,0.9646164774894714,8.110709190368652,20,0.0,0.0,177,-2.4453234672546387,-0.01898624747991562,0.14083480834960938,0.004651006776839495,0.0016094766324386,0.0051354095339775085,-0.99997478723526
21221.838,-0.012162862345576286,0.006699934136122465,0.013064125552773476,-0.06828820705413818,-0.026124337688088417,0.9947687983512878,-0.9921825528144836,-6.226416110992432,-12.610371589660645,20,0.0,0.0,177,-2.4446592330932617,-0.018909623846411705,0.14132116734981537,0.004804869182407856,-0.0003291212779004127,0.004504628013819456,-0.9999783039093018
21223.814,-0.012689591385424137,0.00715873995795846,-0.018591001629829407,-0.0904087945818901,-0.0311251413077116,0.9964801669120789,-1.5265134572982788,-8.753905296325684,-32.776580810546875,20,0.0,0.0,177,-2.4446592330932617,-0.018909623846411705,0.14132116734981537,0.004804869182407856,-0.0003291212779004127,0.004504628013819456,-0.9999783039093018
21225.801,-0.012689591385424137,0.00715873995795846,-0.018591001629829407,-0.0224296897649765,-0.021676503121852875,0.9924538135528564,-1.507200002670288,-3.3626506328582764,-34.28133010864258,20,0.0,0.0,177,-2.4452788829803467,-0.01895848661661148,0.1409260630607605,0.00485437223687768,0.001421838765963912,0.004943398758769035,-0.9999750852584839
21227.776,-0.012889367528259754,0.007279213052242994,-0.0086476169526577,0.07282990217208862,-0.004526946227997541,0.984502375125885,-0.9540693163871765,5.618929386138916,-9.34732437133789,20,0.0,0.0,177,-2.4452788829803467,-0.01895848661661148,0.1409260630607605,0.00485437223687768,0.001421838765963912,0.004943398758769035,-0.9999750852584839
21230.102,-0.012889367528259754,0.007279213052242994,-0.0086476169526577,0.12129658460617065,-0.0004136759671382606,0.9822852611541748,0.11736460775136948,10.72613525390625,24.189836502075195,20,0.0,0.0,177,-2.4452788829803467,-0.01895848661661148,0.1409260630607605,0.00485437223687768,0.001421838765963912,0.004943398758769035,-0.9999750852584839
21231.739,-0.014436041936278343,0.008452164009213448,-0.009515867568552494,0.09639404714107513,-0.009668825194239616,0.9886670708656311,0.7034440636634827,5.319355010986328,35.005916595458984,20,0.0,0.0,177,-2.445343494415283,-0.018983500078320503,0.14079603552818298,0.004954948555678129,0.0015205185627564788,0.004692224785685539,-0.9999756217002869
21233.72,-0.014654447324573994,0.008575797080993652,0.001634197193197906,0.025603707879781723,-0.015279498882591724,0.9963381886482239,0.47432005405426025,-7.873833179473877,17.882665634155273,20,0.0,0.0,177,-2.445343494415283,-0.018983500078320503,0.14079603552818298,0.004954948555678129,0.0015205185627564788,0.004692224785685539,-0.9999756217002869
21235.701,-0.014654447324573994,0.008575797080993652,0.001634197193197906,-0.01496434397995472,-0.015285876579582691,1.0004305839538574,0.24697285890579224,-13.933428764343262,-5.772738456726074,20,0.0,0.0,177,-2.445343494415283,-0.018983500078320503,0.14079603552818298,0.004954948555678129,0.0015205185627564788,0.004692224785685539,-0.9999756217002869
21237.681,-0.014654447324573994,0.008575797080993652,0.001634197193197906,0.011070482432842255,-0.013750826008617878,1.0001945495605469,0.33864444494247437,-5.101003646850586,-13.159114837646484,20,0.0,0.0,177,-2.4453699588775635,-0.018917735666036606,0.1407591700553894,0.004652725532650948,0.0020059654489159584,0.0046411980874836445,-0.999976396560669
21239.781,-0.014865727163851261,0.008696385659277439,0.012434370815753937,0.051731377840042114,-0.010982945561408997,0.9943992495536804,0.3797385096549988,6.7859578132629395,0.23964287340641022,20,0.0,0.0,177,-2.4453699588775635,-0.018917735666036606,0.1407591700553894,0.004652725532650948,0.0020059654489159584,0.0046411980874836445,-0.999976396560669
21241.651,-0.01638135127723217,0.009875668212771416,0.01181736122816801,0.05202930048108101,-0.018502414226531982,0.9937052726745605,0.29037395119667053,8.006563186645508,16.163890838623047,20,0.0,0.0,177,-2.4453699588775635,-0.018917735666036606,0.1407591700553894,0.004652725532650948,0.0020059654489159584,0.0046411980874836445,-0.999976396560669
21243.625,-0.010635378770530224,0.009071361273527145,0.012687929905951023,0.02223336696624756,-0.03306204825639725,0.9991713762283325,-0.07837524265050888,1.0054044723510742,16.39430046081543,20,0.0,0.0,177,-2.445314884185791,-0.01890416070818901,0.14080902934074402,0.0047371843829751015,0.001684033079072833,0.004631958901882172,-0.9999766945838928
21245.607,-0.009802809916436672,0.008708079345524311,-0.017533322796225548,0.0016183353727683425,-0.0353705957531929,1.0032087564468384,-0.7528848648071289,-3.9094345569610596,2.351428508758545,20,0.0,0.0,177,-2.445314884185791,-0.01890416070818901,0.14080902934074402,0.0047371843829751015,0.001684033079072833,0.004631958901882172,-0.9999766945838928
21247.589,-0.009802809916436672,0.008708079345524311,-0.017533322796225548,0.020983701571822166,-0.024416498839855194,1.0036591291427612,-0.7833701968193054,-3.041512966156006,-11.735477447509766,20,0.0,0.0,177,-2.4453911781311035,-0.01902030035853386,0.1407407522201538,0.004715182352811098,0.0016901649069041014,0.004887204617261887,-0.9999755024909973
21249.925,-0.010042177513241768,0.008819120936095715,-0.007945687510073185,0.0558374784886837,-0.011050553061068058,1.0015090703964233,-0.01559330802410841,0.8970802426338196,-10.868210792541504,20,0.0,0.0,177,-2.4453911781311035,-0.01902030035853386,0.1407407522201538,0.004715182352811098,0.0016901649069041014,0.004887204617261887,-0.9999755024909973
21251.551,-0.01176033541560173,0.00997613463550806,-0.008024431765079498,0.05910666286945343,-0.010912518016994,1.0004620552062988,0.7876710295677185,3.986462354660034,4.658194065093994,20,0.0,0.0,177,-2.4453911781311035,-0.01902030035853386,0.1407407522201538,0.004715182352811098,0.0016901649069041014,0.004887204617261887,-0.9999755024909973
21253.532,-0.01176033541560173,0.00997613463550806,-0.008024431765079498,0.032083094120025635,-0.02321413718163967,1.0053187608718872,1.148758888244629,3.230135202407837,15.94398021697998,20,0.0,0.0,177,-2.445269823074341,-0.01893073134124279,0.14089223742485046,0.0049122716300189495,0.0012355938088148832,0.004733937792479992,-0.9999760389328003
21255.513,-0.012013713829219341,0.010099087841808796,0.002747052814811468,0.004814171232283115,-0.026607714593410492,1.0094066858291626,0.8151723742485046,-1.1142585277557373,14.45622730255127,20,0.0,0.0,177,-2.445269823074341,-0.01893073134124279,0.14089223742485046,0.0049122716300189495,0.0012355938088148832,0.004733937792479992,-0.9999760389328003
21257.494,-0.012013713829219341,0.010099087841808796,0.002747052814811468,0.002723892917856574,-0.019027631729841232,1.0111944675445557,0.6003373265266418,-3.6301960945129395,7.606503963470459,20,0.0,0.0,177,-2.445269823074341,-0.01893073134124279,0.14089223742485046,0.0049122716300189495,0.0012355938088148832,0.004733937792479992,-0.9999760389328003
21259.603,-0.012013713829219341,0.010099087841808796,0.002747052814811468,0.030271273106336594,-0.008853296749293804,1.010898470878601,0.44544219970703125,-0.9057210683822632,4.255220413208008,20,0.0,0.0,177,-2.4452621936798096,-0.018905924633145332,0.14083491265773773,0.004639721009880304,0.0017088300082832575,0.004710669629275799,-0.9999766945838928
21261.465,-0.013896169140934944,0.011380109004676342,0.015204332768917084,0.054632510989904404,-0.006543027237057686,1.008440375328064,0.25028470158576965,3.356703042984009,6.939560890197754,20,0.0,0.0,177,-2.4452621936798096,-0.018905924633145332,0.14083491265773773,0.004639721009880304,0.0017088300082832575,0.004710669629275799,-0.9999766945838928
21263.438,-0.010999510064721107,0.010609850287437439,0.015463513322174549,0.06228439137339592,-0.016441933810710907,1.006734013557434,-0.0020479580853134394,5.081463813781738,6.364302158355713,20,0.0,0.0,177,-2.4452621936798096,-0.018905924633145332,0.14083491265773773,0.004639721009880304,0.0017088300082832575,0.004710669629275799,-0.9999766945838928
21265.418,-0.00991775281727314,0.010109796188771725,-0.023880520835518837,0.05724070966243744,-0.01896912232041359,1.0069098472595215,-1.0696147680282593,4.009439468383789,-3.3353934288024902,20,0.0,0.0,177,-2.4452085494995117,-0.01886715739965439,0.1410239338874817,0.005054428242146969,0.0014750404516234994,0.004289286211133003,-0.9999769330024719
21267.4,-0.010160338133573532,0.010233666747808456,-0.014316873624920845,0.015221723355352879,0.0003809771151281893,1.0098702907562256,-2.807908535003662,0.7582960724830627,-18.060382843017578,20,0.0,0.0,177,-2.4452085494995117,-0.01886715739965439,0.1410239338874817,0.005054428242146969,0.0014750404516234994,0.004289286211133003,-0.9999769330024719
21269.734,-0.010160338133573532,0.010233666747808456,-0.014316873624920845,-0.060485657304525375,0.020770590752363205,1.0155158042907715,-4.0136399269104,-3.7719836235046387,-32.36017608642578,20,0.0,0.0,177,-2.4450225830078125,-0.018740588799118996,0.1415080428123474,0.005089216865599155,0.00119542155880481,0.0045082662254571915,-0.9999761581420898
21271.359,-0.01206297893077135,0.011488135904073715,-0.0026503698900341988,-0.10868679732084274,0.03618217632174492,1.0169352293014526,-4.726587295532227,-5.529098987579346,-38.409305572509766,20,0.0,0.0,177,-2.4450225830078125,-0.018740588799118996,0.1415080428123474,0.005089216865599155,0.00119542155880481,0.0045082662254571915,-0.9999761581420898
21273.354,-0.01206297893077135,0.011488135904073715,-0.0026503698900341988,-0.08175315707921982,0.061395127326250076,1.0125536918640137,-5.099066257476807,-1.501562237739563,-27.71806526184082,20,0.0,0.0,177,-2.4450225830078125,-0.018740588799118996,0.1415080428123474,0.005089216865599155,0.00119542155880481,0.0045082662254571915,-0.9999761581420898
21275.334,-0.01206297893077135,0.011488135904073715,-0.0026503698900341988,0.012949238531291485,0.08393339812755585,1.0076664686203003,-4.364190578460693,4.568912029266357,-5.587311267852783,20,0.0,0.0,177,-2.445070266723633,-0.01864701136946678,0.1414412409067154,0.005123216658830643,0.0013734059175476432,0.004785778932273388,-0.9999745488166809
21277.306,-0.01230990793555975,0.011625232174992561,0.007807226851582527,0.11063388735055923,0.08734741061925888,1.0024304389953613,-2.7241885662078857,5.565728187561035,15.682456016540527,20,0.0,0.0,177,-2.445070266723633,-0.01864701136946678,0.1414412409067154,0.005123216658830643,0.0013734059175476432,0.004785778932273388,-0.9999745488166809
21279.405,-0.01230990793555975,0.011625232174992561,0.007807226851582527,0.14083562791347504,0.0494680181145668,0.9992889761924744,-0.8436338305473328,0.5489872694015503,29.826414108276367,20,0.0,0.0,177,-2.445070266723633,-0.01864701136946678,0.1414412409067154,0.005123216658830643,0.0013734059175476432,0.004785778932273388,-0.9999745488166809
21281.27,-0.01379233319312334,0.012711700983345509,0.008774830959737301,0.11163326352834702,-0.032634757459163666,1.005885362625122,0.6383031606674194,-4.4855780601501465,28.92351531982422,20,0.0,0.0,177,-2.44537615776062,-0.01879873126745224,0.14079128205776215,0.004692488349974155,0.0013584443368017673,0.005606924183666706,-0.9999723434448242
21283.255,-0.01379233319312334,0.012711700983345509,0.008774830959737301,0.06274506449699402,-0.124195896089077,1.0198185443878174,1.394439935684204,-8.12397289276123,10.350421905517578,20,0.0,0.0,177,-2.44537615776062,-0.01879873126745224,0.14079128205776215,0.004692488349974155,0.0013584443368017673,0.005606924183666706,-0.9999723434448242
21285.231,-0.01346234604716301,0.011337139643728733,-0.018717244267463684,0.015140040777623653,-0.2070259004831314,1.0307672023773193,2.8951127529144287,-10.443721771240234,-10.042991638183594,20,0.0,0.0,177,-2.44537615776062,-0.01879873126745224,0.14079128205776215,0.004692488349974155,0.0013584443368017673,0.005606924183666706,-0.9999723434448242
21287.223,-0.01346234604716301,0.011337139643728733,-0.018717244267463684,-0.012898377142846584,-0.286494642496109,1.041940689086914,6.208917617797852,-5.660745620727539,-12.363530158996582,20,0.0,0.0,177,-2.4451606273651123,-0.01899644546210766,0.14120711386203766,0.005002541933208704,0.0007311988738365471,0.0033484287559986115,-0.9999816417694092
21289.55,-0.013671224936842918,0.011442886665463448,-0.009383254684507847,-0.017967771738767624,-0.3553328514099121,1.054631233215332,9.935151100158691,3.263420343399048,0.6233852505683899,20,0.0,0.0,177,-2.4451606273651123,-0.01899644546210766,0.14120711386203766,0.005002541933208704,0.0007311988738365471,0.0033484287559986115,-0.9999816417694092
21291.175,-0.014983312226831913,0.012649363838136196,-0.007194081321358681,0.0004467173421289772,-0.38769909739494324,1.0612913370132446,13.065869331359863,6.753381252288818,6.958706855773926,20,0.0,0.0,177,-2.4452219009399414,-0.01912803016602993,0.1411404311656952,0.004508624784648418,0.000937615695875138,0.003458628198131919,-0.9999834895133972
21293.156,-0.01520729623734951,0.012744474224746227,0.0033052582293748856,0.04510098695755005,-0.38209569454193115,1.0652790069580078,16.504283905029297,6.759478569030762,3.058488368988037,20,0.0,0.0,177,-2.4452219009399414,-0.01912803016602993,0.1411404311656952,0.004508624784648418,0.000937615695875138,0.003458628198131919,-0.9999834895133972
21295.137,-0.01520729623734951,0.012744474224746227,0.0033052582293748856,0.09435363113880157,-0.3608736991882324,1.0757272243499756,21.847457885742188,6.918973445892334,2.483365535736084,20,0.0,0.0,177,-2.4452219009399414,-0.01912803016602993,0.1411404311656952,0.004508624784648418,0.000937615695875138,0.003458628198131919,-0.9999834895133972
21297.127,-0.01520729623734951,0.012744474224746227,0.0033052582293748856,0.12594743072986603,-0.32811081409454346,1.0929661989212036,29.039764404296875,-1.1050244569778442,3.436387777328491,20,0.0,0.0,177,-2.4452219009399414,-0.01912803016602993,0.1411404311656952,0.004508624784648418,0.000937615695875138,0.003458628198131919,-0.9999834895133972
21299.227,-0.01520729623734951,0.012744474224746227,0.0033052582293748856,0.13399626314640045,-0.3010600507259369,1.108357310295105,38.47639846801758,-15.097241401672363,-0.9009854793548584,20,0.0,0.0,177,-2.445115327835083,-0.01932307332754135,0.1411963552236557,0.0038190046325325966,0.00038413720903918147,0.003065153956413269,-0.9999879598617554
21301.081,-0.01704949326813221,0.01418022159487009,0.020879974588751793,0.060816213488578796,-0.34861892461776733,1.1437814235687256,51.95286560058594,-17.14811134338379,-6.299533843994141,20,0.0,0.0,177,-2.445115327835083,-0.01932307332754135,0.1411963552236557,0.0038190046325325966,0.00038413720903918147,0.003065153956413269,-0.9999879598617554
21303.069,-0.01704949326813221,0.01418022159487009,0.020879974588751793,-0.08302654325962067,-0.4342692792415619,1.2375515699386597,65.73307800292969,-11.064325332641602,-6.493319034576416,20,0.0,0.0,177,-2.445061445236206,-0.01989540457725525,0.1411539763212204,0.002638992853462696,0.0006349515169858932,0.003106543095782399,-0.9999915361404419
21305.042,-0.01704949326813221,0.01418022159487009,0.020879974588751793,-0.12484998255968094,-0.5130318403244019,1.3646680116653442,79.71550750732422,-14.994558334350586,24.83547592163086,20,0.0,0.0,177,-2.445061445236206,-0.01989540457725525,0.1411539763212204,0.002638992853462696,0.0006349515169858932,0.003106543095782399,-0.9999915361404419
21307.025,-0.020818065851926804,-0.00271107186563313,-0.0034915537107735872,-0.11587046831846237,-0.7461017370223999,1.413265585899353,103.13338470458984,-19.95067596435547,108.55169677734375,20,0.0,0.0,177,-2.445061445236206,-0.01989540457725525,0.1411539763212204,0.002638992853462696,0.0006349515169858932,0.003106543095782399,-0.9999915361404419
21309.359,-0.020818065851926804,-0.00271107186563313,-0.0034915537107735872,-0.26397013664245605,-1.227103590965271,1.2738292217254639,123.49737548828125,-11.175324440002441,132.20782470703125,20,0.0,0.0,177,-2.4441721439361572,-0.020150981843471527,0.14221449196338654,-0.006185747217386961,0.0030017164535820484,0.016899483278393745,-0.9998336434364319
21310.985,-0.020818065851926804,-0.00271107186563313,-0.0034915537107735872,-0.36541247367858887,-1.591341257095337,1.0269348621368408,122.66407012939453,4.384704113006592,-8.459734916687012,20,0.0,0.0,177,-2.4441721439361572,-0.020150981843471527,0.14221449196338654,-0.006185747217386961,0.0030017164535820484,0.016899483278393745,-0.9998336434364319
21312.968,-0.02255271188914776,-0.0012073994148522615,0.03479926660656929,-0.2617279887199402,-1.6051652431488037,0.826290488243103,103.71492767333984,13.012968063354492,-154.3740997314453,20,0.0,0.0,177,-2.4441721439361572,-0.020150981843471527,0.14221449196338654,-0.006185747217386961,0.0030017164535820484,0.016899483278393745,-0.9998336434364319
21314.949,-0.02255271188914776,-0.0012073994148522615,0.03479926660656929,-0.08716908097267151,-1.5038272142410278,0.7906438112258911,77.54735565185547,10.558034896850586,-132.7559051513672,20,0.0,0.0,177,-2.445507049560547,-0.021590568125247955,0.14124399423599243,-0.005574014503508806,0.00205126847140491,0.003321183379739523,-0.9999769330024719
21316.931,-0.02272532507777214,-0.0010684116277843714,0.04498261958360672,0.02438262663781643,-1.4934505224227905,0.9411888122558594,42.856971740722656,12.134221076965332,-37.78317642211914,20,0.0,0.0,177,-2.445507049560547,-0.021590568125247955,0.14124399423599243,-0.005574014503508806,0.00205126847140491,0.003321183379739523,-0.9999769330024719
21319.044,-0.02272532507777214,-0.0010684116277843714,0.04498261958360672,0.08098600059747696,-1.313560962677002,1.252790927886963,-5.859653949737549,23.80956268310547,-14.186198234558105,20,0.0,0.0,177,-2.445507049560547,-0.021590568125247955,0.14124399423599243,-0.005574014503508806,0.00205126847140491,0.003321183379739523,-0.9999769330024719
21320.901,-0.02429255098104477,-0.0007531383889727294,0.04125360772013664,0.07922648638486862,-0.8375604748725891,1.637532114982605,-64.68663024902344,30.32332992553711,-39.791072845458984,20,0.0,0.0,177,-2.4459893703460693,-0.022713517770171165,0.14130853116512299,-0.008407286368310452,-0.00013045314699411392,0.0017680540913715959,-0.999963104724884
21322.878,-0.024482911452651024,-0.0006661118823103607,0.052534688264131546,0.060356780886650085,-0.23930653929710388,2.017064332962036,-117.28533172607422,22.67843246459961,-32.63908004760742,20,1.0,3.0,176,-2.4459893703460693,-0.022713517770171165,0.14130853116512299,-0.008407286368310452,-0.00013045314699411392,0.0017680540913715959,-0.999963104724884
21324.855,-0.008061757311224937,0.02267172746360302,0.026394546031951904,0.06292159855365753,0.4862613379955292,2.3782553672790527,-155.42901611328125,8.109720230102539,-9.754398345947266,20,1.0,3.0,176,-2.4459893703460693,-0.022713517770171165,0.14130853116512299,-0.008407286368310452,-0.00013045314699411392,0.0017680540913715959,-0.999963104724884
21326.836,-0.008326129987835884,0.02226773276925087,0.03535449877381325,0.1650051474571228,1.4114950895309448,2.587038278579712,-164.51510620117188,-3.245441198348999,-11.464544296264648,20,1.0,3.0,176,-2.4454357624053955,-0.024215111508965492,0.14182302355766296,-0.007303799502551556,0.0011886301217600703,0.004015928599983454,-0.9999645352363586
21329.172,-0.008326129987835884,0.02226773276925087,0.03535449877381325,0.3296678066253662,1.9390712976455688,2.552330493927002,-113.69073486328125,-6.309457302093506,38.41166687011719,20,1.0,3.0,176,-2.4454357624053955,-0.024215111508965492,0.14182302355766296,-0.007303799502551556,0.0011886301217600703,0.004015928599983454,-0.9999645352363586
21330.799,-0.011992121115326881,0.01925623044371605,0.13778503239154816,0.36098140478134155,1.5151374340057373,2.542961597442627,-4.941025733947754,3.966249942779541,174.84078979492188,20,1.0,3.0,176,-2.444509506225586,-0.025198614224791527,0.14415380358695984,0.0010533449240028858,-0.004029009956866503,0.0004641559789888561,-0.999991238117218
21332.784,-0.012240627780556679,0.018743406981229782,0.14802436530590057,0.19651956856250763,0.40660831332206726,2.6587953567504883,122.90105438232422,15.24792766571045,253.44662475585938,20,1.0,3.0,176,-2.444509506225586,-0.025198614224791527,0.14415380358695984,0.0010533449240028858,-0.004029009956866503,0.0004641559789888561,-0.999991238117218
21334.762,-0.012240627780556679,0.018743406981229782,0.14802436530590057,-0.02746167965233326,-0.8539254069328308,2.5418038368225098,237.3560333251953,7.496563911437988,164.6388397216797,20,1.0,3.0,176,-2.444509506225586,-0.025198614224791527,0.14415380358695984,0.0010533449240028858,-0.004029009956866503,0.0004641559789888561,-0.999991238117218
21336.742,-0.012240627780556679,0.018743406981229782,0.14802436530590057,-0.22303742170333862,-1.6642837524414062,2.043912172317505,304.3587341308594,-4.099161624908447,-4.975436210632324,20,1.0,3.0,176,-2.4454877376556396,-0.026944328099489212,0.145001620054245,-0.002893058815971017,-0.0012432432267814875,0.003325163386762142,-0.9999895095825195
21338.842,-0.012517093680799007,0.018085762858390808,0.15806090831756592,-0.23395170271396637,-1.0459295511245728,1.3995212316513062,280.18463134765625,-3.8306429386138916,-171.6736602783203,20,1.0,3.0,176,-2.4454877376556396,-0.026944328099489212,0.145001620054245,-0.002893058815971017,-0.0012432432267814875,0.003325163386762142,-0.9999895095825195
21340.714,-0.016113819554448128,0.01610022783279419,0.2966071367263794,-0.05509277805685997,0.9664102792739868,0.8932198286056519,178.5141143798828,1.0523760318756104,-312.4678649902344,20,1.0,3.0,176,-2.4454877376556396,-0.026944328099489212,0.145001620054245,-0.002893058815971017,-0.0012432432267814875,0.003325163386762142,-0.9999895095825195
21342.697,-0.016113819554448128,0.01610022783279419,0.2966071367263794,0.16549180448055267,2.9269614219665527,0.6690670251846313,97.7911605834961,1.8362914323806763,-240.01051330566406,20,1.0,3.0,176,-2.444392204284668,-0.026312127709388733,0.1473734974861145,-0.02074400521814823,-0.0036362509708851576,0.00018560458556748927,-0.9997782111167908
21344.669,-0.018004130572080612,-0.007310918532311916,0.31540536880493164,0.20045417547225952,3.7569949626922607,0.7890435457229614,69.31983184814453,2.839695453643799,125.09477233886719,20,-3.0,7.0,170,-2.444392204284668,-0.026312127709388733,0.1473734974861145,-0.02074400521814823,-0.0036362509708851576,0.00018560458556748927,-0.9997782111167908
21346.654,-0.016559887677431107,-0.008233130909502506,0.26822584867477417,0.09464199841022491,3.2648887634277344,1.356386423110962,46.148258209228516,11.41186237335205,421.5936279296875,20,-3.0,7.0,170,-2.4445505142211914,-0.02681119553744793,0.14757521450519562,-0.021986987441778183,-0.004060645587742329,-0.0004857181047555059,-0.9997498989105225
21348.985,-0.016772979870438576,-0.008519225753843784,0.27728691697120667,-0.0723855271935463,2.032883882522583,2.2031760215759277,8.366775512695312,12.667552947998047,382.1356201171875,20,-3.0,7.0,170,-2.4445505142211914,-0.02681119553744793,0.14757521450519562,-0.021986987441778183,-0.004060645587742329,-0.0004857181047555059,-0.9997498989105225
21350.612,-0.018004028126597404,-0.010048412717878819,0.2806409001350403,-0.40931862592697144,1.1257948875427246,3.071505069732666,-26.592819213867188,-4.379932403564453,149.82167053222656,20,-3.0,7.0,170,-2.4445505142211914,-0.02681119553744793,0.14757521450519562,-0.021986987441778183,-0.004060645587742329,-0.0004857181047555059,-0.9997498989105225
21352.592,-0.018004028126597404,-0.010048412717878819,0.2806409001350403,-0.674751341342926,1.2936584949493408,3.495546579360962,-50.20201873779297,-26.017982482910156,-73.99498748779297,20,-3.0,7.0,170,-2.4450485706329346,-0.027083512395620346,0.15059803426265717,-0.020816585049033165,-0.002587187336757779,-0.004280854016542435,-0.9997708797454834
21354.58,-0.01824663020670414,-0.0102913873270154,0.29088589549064636,-0.49431681632995605,2.150571346282959,3.0946288108825684,-41.90254592895508,-32.4813117980957,-200.0515899658203,20,-3.0,7.0,170,-2.4450485706329346,-0.027083512395620346,0.15059803426265717,-0.020816585049033165,-0.002587187336757779,-0.004280854016542435,-0.9997708797454834
21356.559,-0.01824663020670414,-0.0102913873270154,0.29088589549064636,-0.14279913902282715,2.6272683143615723,2.1776111125946045,20.99685287475586,-24.63562774658203,-115.60706329345703,20,-3.0,7.0,170,-2.4450485706329346,-0.027083512395620346,0.15059803426265717,-0.020816585049033165,-0.002587187336757779,-0.004280854016542435,-0.9997708797454834
21358.656,-0.01824663020670414,-0.0102913873270154,0.29088589549064636,0.05705307051539421,2.0460004806518555,1.209323525428772,117.64688110351562,-14.964412689208984,142.64755249023438,20,-3.0,7.0,170,-2.4456920623779297,-0.026366766542196274,0.15333425998687744,-0.022314000874757767,0.0019255566876381636,-0.01390510331839323,-0.9996525049209595
21360.517,-0.02202855981886387,-0.02256915345788002,0.460660845041275,0.08519266545772552,0.6356459259986877,0.3966185748577118,199.30030822753906,-9.328668594360352,287.8360290527344,20,-3.0,7.0,170,-2.4456920623779297,-0.026366766542196274,0.15333425998687744,-0.022314000874757767,0.0019255566876381636,-0.01390510331839323,-0.9996525049209595
21362.508,-0.02202855981886387,-0.02256915345788002,0.460660845041275,-0.09818693995475769,-0.8042872548103333,-0.1569283902645111,239.62522888183594,-13.637868881225586,160.65110778808594,20,-3.0,7.0,170,-2.4456920623779297,-0.026366766542196274,0.15333425998687744,-0.022314000874757767,0.0019255566876381636,-0.01390510331839323,-0.9996525049209595
21364.487,-0.02202855981886387,-0.02256915345788002,0.460660845041275,-0.3469368815422058,-1.7329689264297485,-0.33159902691841125,253.99197387695312,-20.014196395874023,-84.11457061767578,20,-25.0,10.0,168,-2.4446756839752197,-0.024897130206227303,0.15523351728916168,-0.022090505808591843,-0.0037155477330088615,-0.006074892822653055,-0.9997307062149048
21366.464,-0.059843920171260834,-0.0841306746006012,0.4551854729652405,-0.41479068994522095,-1.8482836484909058,-0.08423709124326706,266.5602111816406,-12.655438423156738,-238.73809814453125,20,-25.0,10.0,168,-2.4446756839752197,-0.024897130206227303,0.15523351728916168,-0.022090505808591843,-0.0037155477330088615,-0.006074892822653055,-0.9997307062149048
21368.797,-0.059843920171260834,-0.0841306746006012,0.4551854729652405,-0.2192392200231552,-1.1927261352539062,0.3660484254360199,290.63214111328125,5.6611175537109375,-257.25738525390625,20,-25.0,10.0,168,-2.4448227882385254,-0.024123387411236763,0.1575247049331665,-0.04806796461343765,-0.0017557083629071712,-0.0013841332402080297,-0.9988415837287903
21370.422,-0.059843920171260834,-0.0841306746006012,0.4551854729652405,-0.010211944580078125,-0.6897488236427307,0.8992557525634766,338.8096923828125,8.670884132385254,-136.5367431640625,20,-25.0,10.0,168,-2.4448227882385254,-0.024123387411236763,0.1575247049331665,-0.04806796461343765,-0.0017557083629071712,-0.0013841332402080297,-0.9988415837287903
21372.404,-0.057558588683605194,-0.07613146305084229,0.36917901039123535,-0.09281151741743088,-1.1778621673583984,1.3468799591064453,374.66680908203125,-1.684556484222412,86.6546859741211,20,-25.0,10.0,168,-2.4448227882385254,-0.024123387411236763,0.1575247049331665,-0.04806796461343765,-0.0017557083629071712,-0.0013841332402080297,-0.9988415837287903
21374.386,-0.057558588683605194,-0.07613146305084229,0.36917901039123535,-0.278731107711792,-2.1483609676361084,1.5472084283828735,324.9311828613281,-2.172788143157959,172.3400421142578,20,-25.0,10.0,168,-2.445434093475342,-0.023517195135354996,0.15990659594535828,-0.06054232642054558,-0.003391256555914879,-0.00036858965177088976,-0.9981598258018494
21376.371,-0.05764130875468254,-0.07531767338514328,0.37894076108932495,-0.2971252501010895,-2.416898012161255,1.607823133468628,190.51705932617188,-1.6034948825836182,-4.115955829620361,20,-25.0,10.0,168,-2.445434093475342,-0.023517195135354996,0.15990659594535828,-0.06054232642054558,-0.003391256555914879,-0.00036858965177088976,-0.9981598258018494
21378.466,-0.05764130875468254,-0.07531767338514328,0.37894076108932495,-0.3067997097969055,-1.6380635499954224,1.69138503074646,38.45204162597656,-18.941774368286133,-203.36114501953125,20,-25.0,10.0,168,-2.445434093475342,-0.023517195135354996,0.15990659594535828,-0.06054232642054558,-0.003391256555914879,-0.00036858965177088976,-0.9981598258018494
21380.329,-0.05900527164340019,-0.08467922359704971,0.3995901644229889,-0.34180426597595215,-0.29083144664764404,1.89357328414917,-71.98622131347656,-36.514801025390625,-229.272705078125,20,-25.0,10.0,168,-2.4455695152282715,-0.022601088508963585,0.16257724165916443,-0.07216119021177292,0.0026905699633061886,-0.015287836082279682,-0.9972721934318542
21382.31,-0.05910438299179077,-0.08362860232591629,0.4104273021221161,-0.28872132301330566,1.0210126638412476,1.9624989032745361,-133.46304321289062,-29.77254867553711,-101.49748992919922,20,-25.0,10.0,168,-2.4455695152282715,-0.022601088508963585,0.16257724165916443,-0.07216119021177292,0.0026905699633061886,-0.015287836082279682,-0.9972721934318542
21384.298,-0.05910438299179077,-0.08362860232591629,0.4104273021221161,-0.06857522577047348,1.8169691562652588,1.6826503276824951,-161.35391235351562,-7.250979423522949,72.09674072265625,20,-25.0,10.0,168,-2.4455695152282715,-0.022601088508963585,0.16257724165916443,-0.07216119021177292,0.0026905699633061886,-0.015287836082279682,-0.9972721934318542
21386.272,-0.05910438299179077,-0.08362860232591629,0.4104273021221161,0.07169752568006516,1.383127212524414,1.1821657419204712,-153.81561279296875,7.6762895584106445,249.292236328125,26,-8.0,7.0,164,-2.4459073543548584,-0.02425977773964405,0.1645355224609375,-0.06256457418203354,-0.0005275000585243106,-0.020990751683712006,-0.9978200197219849
21388.608,-0.06661246716976166,-0.03394302725791931,0.39683282375335693,-0.07023618370294571,-0.39755797386169434,0.8651440739631653,-113.73662567138672,9.989667892456055,364.0816650390625,26,-8.0,7.0,164,-2.4459073543548584,-0.02425977773964405,0.1645355224609375,-0.06256457418203354,-0.0005275000585243106,-0.020990751683712006,-0.9978200197219849
21390.24,-0.06873157620429993,-0.05666563659906387,0.45756101608276367,-0.3508625328540802,-2.534590482711792,0.9258395433425903,-66.17961883544922,-1.6625547409057617,174.11557006835938,26,-8.0,7.0,164,-2.4459073543548584,-0.02425977773964405,0.1645355224609375,-0.06256457418203354,-0.0005275000585243106,-0.020990751683712006,-0.9978200197219849
21392.216,-0.06873157620429993,-0.05666563659906387,0.45756101608276367,-0.4301227629184723,-3.574739933013916,1.1673028469085693,-30.47649574279785,-12.192877769470215,-321.8153381347656,26,-8.0,7.0,164,-2.446387767791748,-0.026647619903087616,0.16633017361164093,-0.04902466759085655,0.001295314752496779,-0.006271669641137123,-0.9987770318984985
21394.198,-0.06886574625968933,-0.05682506039738655,0.46707743406295776,-0.20445503294467926,-2.9418742656707764,1.4584896564483643,-0.3973633646965027,-0.018193289637565613,-709.5521850585938,26,-8.0,7.0,164,-2.446387767791748,-0.026647619903087616,0.16633017361164093,-0.04902466759085655,0.001295314752496779,-0.006271669641137123,-0.9987770318984985
21396.179,-0.06886574625968933,-0.05682506039738655,0.46707743406295776,-0.04878958687186241,-1.3176289796829224,1.8116488456726074,28.7114200592041,15.90205192565918,-629.4327392578125,26,-8.0,7.0,164,-2.447524309158325,-0.026287971064448357,0.1690368950366974,-0.05863290652632713,-0.00015625085507053882,0.017136244103312492,-0.9981325268745422
21398.278,-0.06899205595254898,-0.057000380009412766,0.47660961747169495,-0.09436000883579254,0.2621462643146515,2.2024662494659424,63.1107177734375,10.98686695098877,-225.1953582763672,26,-8.0,7.0,164,-2.447524309158325,-0.026287971064448357,0.1690368950366974,-0.05863290652632713,-0.00015625085507053882,0.017136244103312492,-0.9981325268745422
21400.142,-0.07139652967453003,-0.07254436612129211,0.5043814778327942,-0.07897499203681946,1.1890687942504883,2.4237115383148193,82.99613952636719,2.6409833431243896,112.56171417236328,26,-8.0,7.0,164,-2.447524309158325,-0.026287971064448357,0.1690368950366974,-0.05863290652632713,-0.00015625085507053882,0.017136244103312492,-0.9981325268745422
21402.126,-0.07139652967453003,-0.07254436612129211,0.5043814778327942,-0.005604700185358524,1.3814449310302734,2.431290626525879,54.63157653808594,8.933704376220703,197.34849548339844,26,-8.0,7.0,164,-2.448296308517456,-0.02751576155424118,0.1711335927248001,-0.0601796917617321,-6.651218427577987e-05,0.034423742443323135,-0.9975937604904175
21404.108,-0.07153522223234177,-0.07286810129880905,0.5147660374641418,0.13861069083213806,0.9203041791915894,2.199028253555298,-16.149070739746094,15.386626243591309,113.65533447265625,26,-8.0,7.0,164,-2.448296308517456,-0.02751576155424118,0.1711335927248001,-0.0601796917617321,-6.651218427577987e-05,0.034423742443323135,-0.9975937604904175
21406.085,-0.07405545562505722,-0.060326945036649704,0.5172264575958252,0.3463519811630249,0.31356990337371826,1.7461198568344116,-100.08345031738281,4.878295421600342,50.91465377807617,32,-13.0,11.0,161,-2.448296308517456,-0.02751576155424118,0.1711335927248001,-0.0601796917617321,-6.651218427577987e-05,0.034423742443323135,-0.9975937604904175
21408.434,-0.07115638256072998,-0.05941160395741463,0.4591526985168457,0.44990450143814087,0.45966294407844543,1.184545636177063,-183.23410034179688,-20.434478759765625,54.989295959472656,32,-13.0,11.0,161,-2.4474937915802,-0.02845771424472332,0.17517179250717163,-0.05440510809421539,-0.0009711509919725358,0.027279678732156754,-0.9981458187103271
21410.052,-0.07525685429573059,-0.08480583131313324,0.5718677043914795,0.46232306957244873,1.5729684829711914,0.7105704545974731,-239.9961700439453,-33.528961181640625,63.94181823730469,32,-13.0,11.0,161,-2.4474937915802,-0.02845771424472332,0.17517179250717163,-0.05440510809421539,-0.0009711509919725358,0.027279678732156754,-0.9981458187103271
21412.038,-0.07525685429573059,-0.08480583131313324,0.5718677043914795,0.41054224967956543,2.6523020267486572,0.5809049010276794,-235.21339416503906,-23.003616333007812,122.9829330444336,32,-13.0,11.0,161,-2.4474937915802,-0.02845771424472332,0.17517179250717163,-0.05440510809421539,-0.0009711509919725358,0.027279678732156754,-0.9981458187103271
21414.018,-0.07525685429573059,-0.08480583131313324,0.5718677043914795,0.21365197002887726,3.0324554443359375,0.8102675676345825,-194.6524658203125,-11.167057991027832,266.984619140625,32,-13.0,11.0,161,-2.4488253593444824,-0.0282039362937212,0.17748789489269257,-0.04950190335512161,0.00015814033395145088,-0.002729309257119894,-0.9987702965736389
21415.991,-0.07550253719091415,-0.08530312031507492,0.5821253061294556,0.06907564401626587,2.8921515941619873,1.1070252656936646,-172.54119873046875,-14.911138534545898,313.3039855957031,32,-13.0,11.0,161,-2.4488253593444824,-0.0282039362937212,0.17748789489269257,-0.04950190335512161,0.00015814033395145088,-0.002729309257119894,-0.9987702965736389
21418.106,-0.07550253719091415,-0.08530312031507492,0.5821253061294556,0.22632598876953125,2.4455554485321045,1.1867047548294067,-156.1381072998047,-28.073200225830078,216.37454223632812,32,-13.0,11.0,161,-2.4488253593444824,-0.0282039362937212,0.17748789489269257,-0.04950190335512161,0.00015814033395145088,-0.002729309257119894,-0.9987702965736389
21419.952,-0.07550253719091415,-0.08530312031507492,0.5821253061294556,0.2186998426914215,1.6541857719421387,1.056889533996582,-115.81082916259766,-28.535919189453125,189.04673767089844,32,-13.0,11.0,161,-2.447991371154785,-0.028447236865758896,0.18108592927455902,-0.032191451638936996,0.00015940946468617767,-0.024937210604548454,-0.9991705417633057
21421.938,-0.07455432415008545,-0.09744545817375183,0.5792071223258972,-0.13572463393211365,0.5653254985809326,0.9017691612243652,-47.38288879394531,-24.364120483398438,158.08444213867188,32,-13.0,11.0,161,-2.447991371154785,-0.028447236865758896,0.18108592927455902,-0.032191451638936996,0.00015940946468617767,-0.024937210604548454,-0.9991705417633057
21423.927,-0.07455432415008545,-0.09744545817375183,0.5792071223258972,-0.49299564957618713,-0.36359408497810364,0.7160964608192444,30.503816604614258,-27.28958511352539,-68.0307388305664,32,-11.0,13.0,161,-2.449472427368164,-0.02838217467069626,0.1835947483778,-0.03057084046304226,0.004396469332277775,-0.01141700055450201,-0.9994577169418335
21425.896,-0.07455432415008545,-0.09744545817375183,0.5792071223258972,-0.5312624573707581,-0.6553491950035095,0.513356626033783,89.99991607666016,-31.110620498657227,-345.8232116699219,40,-11.0,13.0,161,-2.449472427368164,-0.02838217467069626,0.1835947483778,-0.03057084046304226,0.004396469332277775,-0.01141700055450201,-0.9994577169418335
21428.236,-0.09051288664340973,-0.08232773840427399,0.5225709676742554,-0.33338475227355957,-0.4048818051815033,0.31797078251838684,120.2554702758789,-31.49949836730957,-394.48345947265625,40,-11.0,13.0,161,-2.449472427368164,-0.02838217467069626,0.1835947483778,-0.03057084046304226,0.004396469332277775,-0.01141700055450201,-0.9994577169418335
21429.858,-0.08964770287275314,-0.08747419714927673,0.5006341338157654,-0.21705906093120575,-0.12372161448001862,0.2655211389064789,128.64028930664062,-31.171327590942383,-246.04449462890625,40,-11.0,13.0,161,-2.4496424198150635,-0.027419554069638252,0.1870526820421219,-0.040767405182123184,0.007881972938776016,0.012011682614684105,-0.9990654587745667
21431.841,-0.08983652293682098,-0.088125079870224,0.5115005373954773,-0.12127713859081268,-0.08334346860647202,0.41699808835983276,117.02623748779297,-27.553306579589844,-137.8108673095703,40,-11.0,13.0,161,-2.4496424198150635,-0.027419554069638252,0.1870526820421219,-0.040767405182123184,0.007881972938776016,0.012011682614684105,-0.9990654587745667
21433.831,-0.08983652293682098,-0.088125079870224,0.5115005373954773,0.003682668786495924,-0.16167917847633362,0.6672870516777039,88.18319702148438,-21.120601654052734,-52.632747650146484,40,-11.0,13.0,161,-2.4496424198150635,-0.027419554069638252,0.1870526820421219,-0.040767405182123184,0.007881972938776016,0.012011682614684105,-0.9990654587745667
21435.809,-0.08983652293682098,-0.088125079870224,0.5115005373954773,-0.02005300484597683,-0.46726566553115845,0.9478423595428467,53.05880355834961,-20.559110641479492,98.99707794189453,40,-11.0,13.0,161,-2.4485769271850586,-0.02630545385181904,0.19024699926376343,-0.046212296932935715,0.00410786597058177,0.023802131414413452,-0.9986395835876465
21437.911,-0.08997517079114914,-0.08870744705200195,0.5223801136016846,-0.16798201203346252,-1.177445650100708,1.3281716108322144,11.628745079040527,-16.574220657348633,201.9147491455078,40,-11.0,13.0,161,-2.4485769271850586,-0.02630545385181904,0.19024699926376343,-0.046212296932935715,0.00410786597058177,0.023802131414413452,-0.9986395835876465
21439.766,-0.08897678554058075,-0.09090512245893478,0.4851158857345581,-0.19705922901630402,-1.7836542129516602,1.7261005640029907,-42.70125961303711,-7.195561408996582,138.36708068847656,40,-11.0,13.0,161,-2.4490909576416016,-0.0263520460575819,0.19331254065036774,-0.045191582292318344,0.0066535272635519505,0.012326257303357124,-0.99888014793396
21441.753,-0.08910282701253891,-0.0914234071969986,0.4971067011356354,0.0064856018871068954,-1.6031819581985474,1.9976414442062378,-96.6744613647461,-11.747171401977539,2.1433310508728027,40,-11.0,13.0,161,-2.4490909576416016,-0.0263520460575819,0.19331254065036774,-0.045191582292318344,0.0066535272635519505,0.012326257303357124,-0.99888014793396
21443.727,-0.09592364728450775,-0.06348942965269089,0.42616385221481323,0.12545166909694672,-0.6518664956092834,2.1139540672302246,-128.8549346923828,-24.54718780517578,19.721769332885742,40,-10.0,-3.0,158,-2.4490909576416016,-0.0263520460575819,0.19331254065036774,-0.045191582292318344,0.0066535272635519505,0.012326257303357124,-0.99888014793396
21445.709,-0.09592364728450775,-0.06348942965269089,0.42616385221481323,0.10837657749652863,-0.014111324213445187,2.029827833175659,-108.85477447509766,-16.422225952148438,194.7337188720703,40,-10.0,-3.0,158,-2.4495112895965576,-0.026672670617699623,0.19634753465652466,-0.03916545584797859,0.006096561439335346,-0.013645147904753685,-0.9991210103034973
21448.047,-0.09610752761363983,-0.06438542902469635,0.43652036786079407,-0.0065371072851121426,-0.6944080591201782,1.6050500869750977,-39.986732482910156,12.516685485839844,342.9693298339844,40,-10.0,-3.0,158,-2.4495112895965576,-0.026672670617699623,0.19634753465652466,-0.03916545584797859,0.006096561439335346,-0.013645147904753685,-0.9991210103034973
21449.671,-0.10160550475120544,-0.07942110300064087,0.525471031665802,-0.23340170085430145,-2.2707369327545166,0.9787474274635315,29.505517959594727,23.94104766845703,315.8870544433594,40,-10.0,-3.0,158,-2.4495112895965576,-0.026672670617699623,0.19634753465652466,-0.03916545584797859,0.006096561439335346,-0.013645147904753685,-0.9991210103034973
21451.652,-0.10160550475120544,-0.07942110300064087,0.525471031665802,-0.44559839367866516,-3.521052598953247,0.34678637981414795,55.1324577331543,3.9190711975097656,63.95535659790039,40,-10.0,-3.0,158,-2.451145648956299,-0.028409838676452637,0.19816064834594727,-0.03314420208334923,0.007032567635178566,-0.023965375497937202,-0.9991384744644165
21453.643,-0.10180085897445679,-0.08051944524049759,0.5369707942008972,-0.5169491171836853,-3.629354476928711,-0.13985276222229004,39.2599983215332,-16.52916717529297,-252.0895538330078,40,-10.0,-3.0,158,-2.451145648956299,-0.028409838676452637,0.19816064834594727,-0.03314420208334923,0.007032567635178566,-0.023965375497937202,-0.9991384744644165
21455.621,-0.10180085897445679,-0.08051944524049759,0.5369707942008972,-0.4125930368900299,-2.795957326889038,-0.31529733538627625,8.927494049072266,-17.476852416992188,-415.4248046875,40,-10.0,-3.0,158,-2.451145648956299,-0.028409838676452637,0.19816064834594727,-0.03314420208334923,0.007032567635178566,-0.023965375497937202,-0.9991384744644165
21457.717,-0.10180085897445679,-0.08051944524049759,0.5369707942008972,-0.3124329745769501,-1.4329782724380493,-0.06432519108057022,-23.282514572143555,-8.546252250671387,-346.8212890625,40,-10.0,-3.0,158,-2.450869560241699,-0.028400732204318047,0.20199592411518097,-0.043171338737010956,0.005592291243374348,-0.015534782782196999,-0.9989312887191772
21459.578,-0.10055641829967499,-0.08287731558084488,0.483854204416275,-0.3597201108932495,0.033161792904138565,0.470626562833786,-55.77553176879883,-3.1854350566864014,-173.70469665527344,40,-10.0,-3.0,158,-2.450869560241699,-0.028400732204318047,0.20199592411518097,-0.043171338737010956,0.005592291243374348,-0.015534782782196999,-0.9989312887191772
21461.575,-0.10055641829967499,-0.08287731558084488,0.483854204416275,-0.2860685884952545,0.9902782440185547,0.9888134598731995,-90.92464447021484,-2.0810492038726807,-40.39003372192383,40,-10.0,-3.0,158,-2.450869560241699,-0.028400732204318047,0.20199592411518097,-0.043171338737010956,0.005592291243374348,-0.015534782782196999,-0.9989312887191772
21463.546,-0.10055641829967499,-0.08287731558084488,0.483854204416275,-0.051493022590875626,1.0182586908340454,1.367020845413208,-130.47552490234375,1.839324712753296,51.88984680175781,40,-5.0,-12.0,155,-2.4510140419006348,-0.030449554324150085,0.20508156716823578,-0.039638347923755646,0.007916495203971863,0.006655630189925432,-0.9991605877876282
21465.522,-0.09329501539468765,-0.05159918591380119,0.4282301664352417,0.10630573332309723,0.3377382755279541,1.5556727647781372,-173.7681121826172,7.049792766571045,103.22806549072266,46,-5.0,-12.0,155,-2.4510140419006348,-0.030449554324150085,0.20508156716823578,-0.039638347923755646,0.007916495203971863,0.006655630189925432,-0.9991605877876282
21467.851,-0.09329501539468765,-0.05159918591380119,0.4282301664352417,0.12252923101186752,-0.366242378950119,1.5429447889328003,-209.22727966308594,8.544377326965332,55.903324127197266,46,-5.0,-12.0,155,-2.452467441558838,-0.03283765912055969,0.20792047679424286,-0.025115609169006348,0.008891547098755836,0.01641986332833767,-0.9995101690292358
21469.483,-0.09329501539468765,-0.05159918591380119,0.4282301664352417,0.05894935503602028,-0.5727324485778809,1.3406341075897217,-218.20021057128906,3.7959206104278564,-68.34947967529297,46,-5.0,-12.0,155,-2.452467441558838,-0.03283765912055969,0.20792047679424286,-0.025115609169006348,0.008891547098755836,0.01641986332833767,-0.9995101690292358
21471.465,-0.09576500207185745,-0.061219919472932816,0.44545283913612366,-0.13392412662506104,-0.250810831785202,1.0903513431549072,-200.12965393066406,-9.249045372009277,-136.05111694335938,46,-5.0,-12.0,155,-2.452467441558838,-0.03283765912055969,0.20792047679424286,-0.025115609169006348,0.008891547098755836,0.01641986332833767,-0.9995101690292358
21473.446,-0.09576500207185745,-0.061219919472932816,0.44545283913612366,-0.1879201978445053,0.43102937936782837,0.9264483451843262,-166.94808959960938,-8.760010719299316,-74.69205474853516,46,-5.0,-12.0,155,-2.453000545501709,-0.034290410578250885,0.21003808081150055,-0.018074169754981995,0.007355574052780867,0.015936674550175667,-0.999682605266571
21475.427,-0.09615769982337952,-0.06317480653524399,0.4576271176338196,0.009187442250549793,1.1707412004470825,0.8531085252761841,-131.2921142578125,16.210758209228516,65.86347961425781,46,-5.0,-12.0,155,-2.453000545501709,-0.034290410578250885,0.21003808081150055,-0.018074169754981995,0.007355574052780867,0.015936674550175667,-0.999682605266571
21477.526,-0.09615769982337952,-0.06317480653524399,0.4576271176338196,0.26561763882637024,1.5633652210235596,0.841280996799469,-94.76289367675781,34.437225341796875,198.6498565673828,46,-5.0,-12.0,155,-2.453000545501709,-0.034290410578250885,0.21003808081150055,-0.018074169754981995,0.007355574052780867,0.015936674550175667,-0.999682605266571
21479.389,-0.09615769982337952,-0.06317480653524399,0.4576271176338196,0.4578758180141449,1.4124709367752075,0.9874699115753174,-62.94285202026367,27.8131160736084,274.08648681640625,46,-5.0,-12.0,155,-2.452697992324829,-0.03565685823559761,0.21313229203224182,-0.010384101420640945,0.005974241532385349,0.006355214398354292,-0.9999080896377563
21481.387,-0.09870299696922302,-0.07129155844449997,0.47871649265289307,0.3938692510128021,0.9106290340423584,1.276790738105774,-47.830501556396484,14.100028991699219,277.4975280761719,46,-5.0,-12.0,155,-2.452697992324829,-0.03565685823559761,0.21313229203224182,-0.010384101420640945,0.005974241532385349,0.006355214398354292,-0.9999080896377563
21483.363,-0.09113873541355133,-0.060942694544792175,0.48293519020080566,-0.019506510347127914,0.43086084723472595,1.5493305921554565,-58.13407897949219,9.913846015930176,181.9598846435547,46,-5.0,-8.0,152,-2.452697992324829,-0.03565685823559761,0.21313229203224182,-0.010384101420640945,0.005974241532385349,0.006355214398354292,-0.9999080896377563
21485.333,-0.09113873541355133,-0.060942694544792175,0.48293519020080566,-0.47138339281082153,0.6582657694816589,1.4903301000595093,-96.05036163330078,5.40248966217041,-22.13295555114746,57,-5.0,-8.0,152,-2.453325033187866,-0.03633277490735054,0.2161923050880432,-0.007146894000470638,0.0033048666082322598,-0.0055251107551157475,-0.9999537467956543
21487.669,-0.08680178970098495,-0.05647522956132889,0.42154595255851746,-0.46251675486564636,1.9063220024108887,0.8976638317108154,-141.18995666503906,-4.606540679931641,-223.9635467529297,57,-5.0,-8.0,152,-2.453325033187866,-0.03633277490735054,0.2161923050880432,-0.007146894000470638,0.0033048666082322598,-0.0055251107551157475,-0.9999537467956543
21489.296,-0.08978784084320068,-0.0582389310002327,0.4483974874019623,-0.07506611943244934,3.0935115814208984,0.21771025657653809,-135.9169921875,-6.215547561645508,-183.53179931640625,57,-5.0,-8.0,152,-2.453325033187866,-0.03633277490735054,0.2161923050880432,-0.007146894000470638,0.0033048666082322598,-0.0055251107551157475,-0.9999537467956543
21491.277,-0.08978784084320068,-0.0582389310002327,0.4483974874019623,0.1700308918952942,3.251859664916992,-0.13259859383106232,-72.76659393310547,-5.104834079742432,144.3717041015625,57,-5.0,-8.0,152,-2.453325033187866,-0.03633277490735054,0.2161923050880432,-0.007146894000470638,0.0033048666082322598,-0.0055251107551157475,-0.9999537467956543
21493.267,-0.08978784084320068,-0.0582389310002327,0.4483974874019623,0.011022958904504776,2.4949700832366943,-0.019585805013775826,-23.55255699157715,-9.560379028320312,380.3831787109375,57,-5.0,-8.0,152,-2.4543192386627197,-0.03589719161391258,0.2190336287021637,-0.0067158290185034275,0.006590108387172222,-0.02076392062008381,-0.9997401237487793
21495.242,-0.09033867716789246,-0.06048966199159622,0.4614213705062866,-0.28074753284454346,1.3957748413085938,0.45966628193855286,-22.357650756835938,-16.60964012145996,234.34011840820312,57,-5.0,-8.0,152,-2.4549105167388916,-0.03683406859636307,0.22156661748886108,0.004042855463922024,0.005010731052607298,-0.016278404742479324,-0.9998468160629272
21497.341,-0.09089484065771103,-0.06264584511518478,0.4743454158306122,-0.4351387917995453,0.36726492643356323,0.953119695186615,-24.892641067504883,-22.697818756103516,-56.566307067871094,57,-5.0,-8.0,152,-2.4549105167388916,-0.03683406859636307,0.22156661748886108,0.004042855463922024,0.005010731052607298,-0.016278404742479324,-0.9998468160629272
21499.202,-0.08858143538236618,-0.06332112848758698,0.4017028212547302,-0.47781622409820557,-0.20911164581775665,1.3352662324905396,-6.537315368652344,-25.321226119995117,-197.82452392578125,57,-5.0,-8.0,152,-2.4549105167388916,-0.03683406859636307,0.22156661748886108,0.004042855463922024,0.005010731052607298,-0.016278404742479324,-0.9998468160629272
21501.182,-0.08858143538236618,-0.06332112848758698,0.4017028212547302,-0.43888697028160095,-0.14509359002113342,1.6065891981124878,22.35051155090332,-20.40550422668457,-241.42037963867188,57,-5.0,-8.0,152,-2.4560818672180176,-0.03610478341579437,0.22305430471897125,-0.0016680294647812843,0.0061370148323476315,-0.00014394772006198764,-0.9999797940254211
21503.171,-0.08917306363582611,-0.0654938593506813,0.4159003794193268,-0.20115238428115845,0.3624296486377716,1.633384108543396,43.035099029541016,-11.49450969696045,-236.90353393554688,57,-5.0,-8.0,152,-2.4560818672180176,-0.03610478341579437,0.22305430471897125,-0.0016680294647812843,0.0061370148323476315,-0.00014394772006198764,-0.9999797940254211
21505.154,-0.0819416418671608,-0.07609305530786514,0.4191136658191681,0.09711571037769318,0.8998525142669678,1.4581243991851807,45.529563903808594,-10.67302417755127,-101.12244415283203,65,3.0,-6.0,150,-2.4560818672180176,-0.03610478341579437,0.22305430471897125,-0.0016680294647812843,0.0061370148323476315,-0.00014394772006198764,-0.9999797940254211
21507.476,-0.07750096917152405,-0.07072589546442032,0.3476807773113251,0.05720222741365433,0.9542639255523682,1.2417372465133667,33.886653900146484,-22.539947509765625,84.6961669921875,65,3.0,-6.0,150,-2.4574174880981445,-0.035232000052928925,0.22534562647342682,-0.00534024415537715,0.009482704102993011,0.010018575936555862,-0.9998905658721924
21509.108,-0.08097611367702484,-0.07025106996297836,0.39817607402801514,-0.207991823554039,0.3860870599746704,1.046244502067566,13.17177963256836,-32.08494567871094,133.07725524902344,65,3.0,-6.0,150,-2.4574174880981445,-0.035232000052928925,0.22534562647342682,-0.00534024415537715,0.009482704102993011,0.010018575936555862,-0.9998905658721924
21511.098,-0.08097611367702484,-0.07025106996297836,0.39817607402801514,-0.2633510231971741,-0.37475791573524475,0.8591229319572449,-6.1539740562438965,-20.54824447631836,76.86175537109375,65,3.0,-6.0,150,-2.4574174880981445,-0.035232000052928925,0.22534562647342682,-0.00534024415537715,0.009482704102993011,0.010018575936555862,-0.9998905658721924
21513.069,-0.08097611367702484,-0.07025106996297836,0.39817607402801514,-0.11446501314640045,-0.9625377058982849,0.6746916174888611,-14.659337997436523,-1.9119383096694946,72.7928695678711,65,3.0,-6.0,150,-2.456533670425415,-0.034934114664793015,0.2292679399251938,-0.004858583677560091,0.007716471329331398,0.01014908216893673,-0.9999069571495056
21515.059,-0.08157926052808762,-0.07191892713308334,0.41182875633239746,0.012088705785572529,-1.4903380870819092,0.6593897938728333,-13.776837348937988,-2.0204551219940186,97.76595306396484,65,3.0,-6.0,150,-2.456533670425415,-0.034934114664793015,0.2292679399251938,-0.004858583677560091,0.007716471329331398,0.01014908216893673,-0.9999069571495056
21517.151,-0.08157926052808762,-0.07191892713308334,0.41182875633239746,-0.03168470785021782,-1.9018830060958862,0.8726126551628113,-15.129875183105469,-17.460966110229492,46.239715576171875,65,3.0,-6.0,150,-2.4570930004119873,-0.03422359749674797,0.2320825457572937,-0.0038544887211173773,0.0071192895993590355,-0.009351939894258976,-0.999923586845398
21519.023,-0.0828922837972641,-0.07213170826435089,0.4091491401195526,-0.1895049512386322,-1.7626128196716309,1.2226026058197021,-20.503854751586914,-23.45362663269043,-71.54153442382812,65,3.0,-6.0,150,-2.4570930004119873,-0.03422359749674797,0.2320825457572937,-0.0038544887211173773,0.0071192895993590355,-0.009351939894258976,-0.999923586845398
21520.995,-0.0828922837972641,-0.07213170826435089,0.4091491401195526,-0.24503932893276215,-0.865213930606842,1.6022242307662964,-25.61672592163086,-9.997615814208984,-144.0266876220703,65,3.0,-6.0,150,-2.4570930004119873,-0.03422359749674797,0.2320825457572937,-0.0038544887211173773,0.0071192895993590355,-0.009351939894258976,-0.999923586845398
21522.979,-0.0828922837972641,-0.07213170826435089,0.4091491401195526,-0.10671668499708176,-0.21008840203285217,1.667949914932251,-10.826400756835938,12.319028854370117,-81.35997772216797,65,3.0,-6.0,150,-2.4579217433929443,-0.03387385979294777,0.23551765084266663,-0.0026579045224934816,0.00914714764803648,-0.019393686205148697,-0.9997665882110596
21524.956,-0.0828922837972641,-0.07213170826435089,0.4091491401195526,0.009088283404707909,-0.9024662375450134,1.4563673734664917,38.54496765136719,33.31414794921875,86.40711975097656,74,1.0,-12.0,149,-2.4579217433929443,-0.03387385979294777,0.23551765084266663,-0.0026579045224934816,0.00914714764803648,-0.019393686205148697,-0.9997665882110596
21527.294,-0.06672585755586624,-0.07016297429800034,0.3604019582271576,-0.1605854481458664,-2.4430015087127686,1.1887422800064087,73.44026947021484,32.74737548828125,171.9608154296875,74,1.0,-12.0,149,-2.4579217433929443,-0.03387385979294777,0.23551765084266663,-0.0026579045224934816,0.00914714764803648,-0.019393686205148697,-0.9997665882110596
21528.92,-0.07076466083526611,-0.0686018168926239,0.3972783088684082,-0.370369553565979,-3.3244879245758057,0.8297101855278015,53.92681884765625,10.256598472595215,-28.317794799804688,74,1.0,-12.0,149,-2.4579217433929443,-0.03387385979294777,0.23551765084266663,-0.0026579045224934816,0.00914714764803648,-0.019393686205148697,-0.9997665882110596
21530.901,-0.07076466083526611,-0.0686018168926239,0.3972783088684082,-0.39389103651046753,-3.1017606258392334,0.41678810119628906,2.198484420776367,-2.5972962379455566,-366.8466796875,74,1.0,-12.0,149,-2.4579217433929443,-0.03387385979294777,0.23551765084266663,-0.0026579045224934816,0.00914714764803648,-0.019393686205148697,-0.9997665882110596
21532.882,-0.07076466083526611,-0.0686018168926239,0.3972783088684082,-0.2909136116504669,-2.2734224796295166,0.17062890529632568,-44.28203201293945,3.832749366760254,-506.2624816894531,74,1.0,-12.0,149,-2.459359884262085,-0.03493725135922432,0.23786437511444092,-0.00678864074870944,0.011899937875568867,0.009389524348080158,-0.9998621344566345
21534.864,-0.07154446095228195,-0.07006578892469406,0.411624938249588,-0.10179219394922256,-1.1732548475265503,0.23360837996006012,-78.17700958251953,5.633817195892334,-401.7926940917969,74,1.0,-12.0,149,-2.4593758583068848,-0.03496038168668747,0.24179381132125854,-0.006709796376526356,0.008558197878301144,0.008753622882068157,-0.9999025464057922
21536.972,-0.0723012387752533,-0.07148362696170807,0.4259829819202423,0.07146506011486053,0.07160761952400208,0.4289340674877167,-111.27403259277344,-6.039385795593262,-207.26284790039062,74,1.0,-12.0,149,-2.4593758583068848,-0.03496038168668747,0.24179381132125854,-0.006709796376526356,0.008558197878301144,0.008753622882068157,-0.9999025464057922
21538.836,-0.07256440073251724,-0.07014148682355881,0.37798574566841125,0.222660094499588,0.8916613459587097,0.6733459234237671,-138.95730590820312,-8.718567848205566,16.34373664855957,74,1.0,-12.0,149,-2.460533857345581,-0.03684265911579132,0.24325275421142578,-0.0013755320105701685,0.007770568132400513,0.018547430634498596,-0.9997968673706055
21540.807,-0.07337171584367752,-0.07163392752408981,0.39384764432907104,0.25157615542411804,0.733781099319458,0.9669574499130249,-160.07077026367188,4.198361873626709,240.8246612548828,74,1.0,-12.0,149,-2.460533857345581,-0.03684265911579132,0.24325275421142578,-0.0013755320105701685,0.007770568132400513,0.018547430634498596,-0.9997968673706055
21542.793,-0.07337171584367752,-0.07163392752408981,0.39384764432907104,0.07688119262456894,-0.1448131948709488,1.2388617992401123,-183.38906860351562,8.741837501525879,315.2431335449219,74,1.0,-12.0,149,-2.460533857345581,-0.03684265911579132,0.24325275421142578,-0.0013755320105701685,0.007770568132400513,0.018547430634498596,-0.9997968673706055
21544.772,-0.07337171584367752,-0.07163392752408981,0.39384764432907104,-0.10258978605270386,-0.8695458173751831,1.3885844945907593,-201.4452667236328,-0.726715087890625,154.67869567871094,74,0.0,1.0,148,-2.462146759033203,-0.03914129361510277,0.24621662497520447,0.010057330131530762,0.012957794591784477,0.022525139153003693,-0.9996117353439331
21547.091,-0.06327182799577713,-0.022176889702677727,0.36717429757118225,-0.03380720689892769,-0.9038404822349548,1.3256651163101196,-198.16705322265625,-5.7862653732299805,-79.16244506835938,82,0.0,1.0,148,-2.462146759033203,-0.03914129361510277,0.24621662497520447,0.010057330131530762,0.012957794591784477,0.022525139153003693,-0.9996117353439331
21548.732,-0.06527380645275116,-0.022398553788661957,0.36513423919677734,0.1366603970527649,-0.43459203839302063,1.1249487400054932,-171.52268981933594,0.5501010417938232,-170.7110595703125,82,0.0,1.0,148,-2.462146759033203,-0.03914129361510277,0.24621662497520447,0.010057330131530762,0.012957794591784477,0.022525139153003693,-0.9996117353439331
21550.717,-0.06527380645275116,-0.022398553788661957,0.36513423919677734,0.1600225865840912,0.2453414797782898,0.9939677119255066,-133.48667907714844,5.480631351470947,-92.58605194091797,82,0.0,1.0,148,-2.4629104137420654,-0.04023678973317146,0.2480800598859787,0.01791003718972206,0.010335804894566536,0.013948415406048298,-0.9996888637542725
21552.695,-0.06614486128091812,-0.02468540333211422,0.3797176480293274,0.0898253470659256,0.9026775360107422,0.9942938089370728,-91.12181854248047,6.6609883308410645,37.218135833740234,82,0.0,1.0,148,-2.4629104137420654,-0.04023678973317146,0.2480800598859787,0.01791003718972206,0.010335804894566536,0.013948415406048298,-0.9996888637542725
21554.676,-0.06614486128091812,-0.02468540333211422,0.3797176480293274,0.11158553510904312,1.2957088947296143,1.0601701736450195,-52.92308044433594,14.858266830444336,121.48225402832031,82,0.0,1.0,148,-2.4629104137420654,-0.04023678973317146,0.2480800598859787,0.01791003718972206,0.010335804894566536,0.013948415406048298,-0.9996888637542725
21556.775,-0.06614486128091812,-0.02468540333211422,0.3797176480293274,0.16266779601573944,1.2491196393966675,1.2246119976043701,-30.477216720581055,22.350187301635742,117.26788330078125,82,0.0,1.0,148,-2.4639344215393066,-0.04143736883997917,0.25089168548583984,0.022498739883303642,0.006819603964686394,0.01091630570590496,-0.9996640086174011
21558.639,-0.0695706456899643,-0.022967718541622162,0.4029739201068878,0.20394182205200195,0.7672574520111084,1.4039658308029175,-24.273117065429688,21.571855545043945,62.86439514160156,82,0.0,1.0,148,-2.4639344215393066,-0.04143736883997917,0.25089168548583984,0.022498739883303642,0.006819603964686394,0.01091630570590496,-0.9996640086174011
21560.625,-0.0695706456899643,-0.022967718541622162,0.4029739201068878,0.16705481708049774,0.35947149991989136,1.4872018098831177,-41.486328125,15.00424575805664,7.073660850524902,82,0.0,1.0,148,-2.463413953781128,-0.041633859276771545,0.25457504391670227,0.024857666343450546,0.005416773725301027,0.012542187236249447,-0.9995976686477661
21562.602,-0.07045681774616241,-0.0253191739320755,0.41926753520965576,0.028283949941396713,0.8294667601585388,1.3991276025772095,-93.74118041992188,-2.5305111408233643,-70.96021270751953,82,0.0,1.0,148,-2.463413953781128,-0.041633859276771545,0.25457504391670227,0.024857666343450546,0.005416773725301027,0.012542187236249447,-0.9995976686477661
21564.586,-0.07045681774616241,-0.0253191739320755,0.41926753520965576,-0.06054077297449112,2.2231431007385254,1.147333025932312,-159.55142211914062,-23.063486099243164,-172.48324584960938,82,0.0,0.0,145,-2.463413953781128,-0.041633859276771545,0.25457504391670227,0.024857666343450546,0.005416773725301027,0.012542187236249447,-0.9995976686477661
21566.927,-0.0714486762881279,0.003228547051548958,0.42504414916038513,-0.013624623417854309,3.6470301151275635,0.7931644320487976,-184.0635223388672,-26.64446258544922,-159.6370086669922,96,0.0,0.0,145,-2.4643959999084473,-0.04063151404261589,0.25753700733184814,0.027338843792676926,0.00721836369484663,0.00546244066208601,-0.9995852708816528
21568.543,-0.0714486762881279,0.003228547051548958,0.42504414916038513,0.059137746691703796,4.128519535064697,0.44863763451576233,-146.1096954345703,-10.697714805603027,71.97156524658203,96,0.0,0.0,145,-2.4643959999084473,-0.04063151404261589,0.25753700733184814,0.027338843792676926,0.00721836369484663,0.00546244066208601,-0.9995852708816528
21570.528,-0.07123307138681412,0.012888305820524693,0.3955850899219513,0.10992256551980972,3.3551809787750244,0.31031718850135803,-87.0187759399414,-0.9053525924682617,331.69366455078125,96,0.0,0.0,145,-2.4643959999084473,-0.04063151404261589,0.25753700733184814,0.027338843792676926,0.00721836369484663,0.00546244066208601,-0.9995852708816528
21572.507,-0.07123307138681412,0.012888305820524693,0.3955850899219513,0.12364556640386581,1.869121789932251,0.39373111724853516,-52.8109016418457,-12.314867973327637,372.1783142089844,96,0.0,0.0,145,-2.465144634246826,-0.041874486953020096,0.26034170389175415,0.041167743504047394,0.006041436456143856,0.003559916513040662,-0.9991276264190674
21574.5,-0.07205376774072647,0.010473111644387245,0.4101724922657013,0.020891845226287842,0.44833770394325256,0.5789986848831177,-36.545711517333984,-23.067726135253906,171.5548553466797,96,0.0,0.0,145,-2.465144634246826,-0.041874486953020096,0.26034170389175415,0.041167743504047394,0.006041436456143856,0.003559916513040662,-0.9991276264190674
21576.589,-0.07205376774072647,0.010473111644387245,0.4101724922657013,-0.19304470717906952,-0.4054417014122009,0.6958104968070984,-8.053556442260742,-22.216428756713867,-87.47931671142578,96,0.0,0.0,145,-2.465144634246826,-0.041874486953020096,0.26034170389175415,0.041167743504047394,0.006041436456143856,0.003559916513040662,-0.9991276264190674
21578.46,-0.07131844013929367,0.01268408726900816,0.3592740595340729,-0.26710987091064453,-0.6133432984352112,0.8062916398048401,43.02766799926758,-14.416999816894531,-244.00531005859375,96,0.0,0.0,145,-2.465144634246826,-0.041874486953020096,0.26034170389175415,0.041167743504047394,0.006041436456143856,0.003559916513040662,-0.9991276264190674
21580.431,-0.07131844013929367,0.01268408726900816,0.3592740595340729,-0.08053578436374664,-0.3070877492427826,0.9061968326568604,95.54854583740234,-6.603935241699219,-253.5773468017578,96,0.0,0.0,145,-2.467060089111328,-0.04117796570062637,0.26059430837631226,0.03915148228406906,0.012191805988550186,0.010832893662154675,-0.9991002082824707
21582.424,-0.07225248217582703,0.010279981419444084,0.3752487599849701,0.08629940450191498,0.24968434870243073,0.9645212888717651,121.07495880126953,-5.535586833953857,-137.6063995361328,96,0.0,0.0,145,-2.467060089111328,-0.04117796570062637,0.26059430837631226,0.03915148228406906,0.012191805988550186,0.010832893662154675,-0.9991002082824707
21584.405,-0.07225248217582703,0.010279981419444084,0.3752487599849701,0.08971607685089111,0.6453778147697449,1.0464552640914917,106.77629089355469,-9.619523048400879,-1.4812042713165283,96,0.0,0.0,145,-2.467571973800659,-0.03853211551904678,0.2633919417858124,0.025024142116308212,0.015342609956860542,0.026935957372188568,-0.9992061257362366
21586.727,-0.07137484103441238,-0.017443664371967316,0.40314415097236633,0.07210516929626465,0.5939114093780518,1.080765724182129,69.58110809326172,-10.39552116394043,81.40813446044922,106,1.0,-11.0,142,-2.467571973800659,-0.03853211551904678,0.2633919417858124,0.025024142116308212,0.015342609956860542,0.026935957372188568,-0.9992061257362366
21588.366,-0.06883011758327484,-0.0059912982396781445,0.32499104738235474,0.04006507247686386,0.07406144589185715,1.0683015584945679,43.14002990722656,-2.8141822814941406,134.3976593017578,106,1.0,-11.0,142,-2.467571973800659,-0.03853211551904678,0.2633919417858124,0.025024142116308212,0.015342609956860542,0.026935957372188568,-0.9992061257362366
21590.337,-0.06883011758327484,-0.0059912982396781445,0.32499104738235474,-0.10565723478794098,-0.5808065533638,1.004324197769165,37.840084075927734,6.27416467666626,171.42848205566406,106,1.0,-11.0,142,-2.468545436859131,-0.038269899785518646,0.2657932937145233,0.02677776850759983,0.01096266508102417,0.011039212346076965,-0.9995204210281372
21592.334,-0.06968256831169128,-0.007421363145112991,0.33901217579841614,-0.1076808050274849,-1.0596612691879272,0.8538633584976196,49.38733673095703,10.771361351013184,167.63267517089844,106,1.0,-11.0,142,-2.468545436859131,-0.038269899785518646,0.2657932937145233,0.02677776850759983,0.01096266508102417,0.011039212346076965,-0.9995204210281372
21594.307,-0.06968256831169128,-0.007421363145112991,0.33901217579841614,0.10513807088136673,-1.3682187795639038,0.7940468192100525,68.16283416748047,10.956698417663574,155.8170623779297,106,1.0,-11.0,142,-2.4676413536071777,-0.0376942977309227,0.26960256695747375,0.02808932401239872,0.006166068837046623,-0.002425312763080001,-0.9995834231376648
21596.412,-0.0704570859670639,-0.008724180981516838,0.35303184390068054,0.19796232879161835,-1.6904239654541016,1.0239741802215576,86.97505950927734,9.606715202331543,144.44017028808594,106,1.0,-11.0,142,-2.4676413536071777,-0.0376942977309227,0.26960256695747375,0.02808932401239872,0.006166068837046623,-0.002425312763080001,-0.9995834231376648
21598.263,-0.07260589301586151,-0.0007866250816732645,0.34710827469825745,0.0002747206890489906,-2.1120221614837646,1.4337084293365479,104.15413665771484,7.6988067626953125,85.66992950439453,106,1.0,-11.0,142,-2.4676413536071777,-0.0376942977309227,0.26960256695747375,0.02808932401239872,0.006166068837046623,-0.002425312763080001,-0.9995834231376648
21600.244,-0.07260589301586151,-0.0007866250816732645,0.34710827469825745,-0.3240337371826172,-2.3945605754852295,1.7357972860336304,109.54834747314453,2.463665008544922,-8.122334480285645,106,1.0,-11.0,142,-2.469226360321045,-0.036967553198337555,0.27116823196411133,0.021212849766016006,0.004965134896337986,-0.009025396779179573,-0.9997220039367676
21602.235,-0.0734674483537674,-0.0019759894348680973,0.3626190721988678,-0.5135008096694946,-1.9941717386245728,1.728223204612732,73.49983978271484,0.21878114342689514,-91.21488189697266,106,1.0,-11.0,142,-2.469226360321045,-0.036967553198337555,0.27116823196411133,0.021212849766016006,0.004965134896337986,-0.009025396779179573,-0.9997220039367676
21604.216,-0.0734674483537674,-0.0019759894348680973,0.3626190721988678,-0.39959755539894104,-0.8563851118087769,1.283416509628296,-2.981309175491333,10.067934036254883,-165.00927734375,106,1.0,-11.0,142,-2.469226360321045,-0.036967553198337555,0.27116823196411133,0.021212849766016006,0.004965134896337986,-0.009025396779179573,-0.9997220039367676
21606.551,-0.0734674483537674,-0.0019759894348680973,0.3626190721988678,-0.04928687587380409,0.1068786010146141,0.6218501329421997,-55.82926559448242,21.188730239868164,-161.37294006347656,106,1.0,-21.0,140,-2.469928741455078,-0.03690780699253082,0.27374929189682007,0.01709631457924843,0.004970096051692963,-0.011991753242909908,-0.9997695684432983
21608.17,-0.06433100998401642,0.003679415909573436,0.3613717555999756,0.12315431237220764,0.12637202441692352,0.1604575663805008,-51.33018493652344,19.801149368286133,14.97800064086914,116,1.0,-21.0,140,-2.469928741455078,-0.03690780699253082,0.27374929189682007,0.01709631457924843,0.004970096051692963,-0.011991753242909908,-0.9997695684432983
21610.152,-0.06433100998401642,0.003679415909573436,0.3613717555999756,0.006385514512658119,-0.5013962388038635,0.033476877957582474,-35.842559814453125,15.153916358947754,200.65142822265625,116,1.0,-21.0,140,-2.470581531524658,-0.03757411986589432,0.2769324481487274,0.022000689059495926,0.006587959360331297,-0.006629165727645159,-0.9997143149375916
21612.141,-0.06525760889053345,0.0026859038043767214,0.37595435976982117,-0.1224650889635086,-0.9596434235572815,0.1715114414691925,-57.307674407958984,17.881174087524414,155.88555908203125,116,1.0,-21.0,140,-2.470581531524658,-0.03757411986589432,0.2769324481487274,0.022000689059495926,0.006587959360331297,-0.006629165727645159,-0.9997143149375916
21614.114,-0.06525760889053345,0.0026859038043767214,0.37595435976982117,-0.18273307383060455,-1.0314537286758423,0.5191749930381775,-95.84358978271484,18.07942771911621,-34.79179382324219,116,1.0,-21.0,140,-2.470581531524658,-0.03757411986589432,0.2769324481487274,0.022000689059495926,0.006587959360331297,-0.006629165727645159,-0.9997143149375916
21616.211,-0.06525760889053345,0.0026859038043767214,0.37595435976982117,-0.332084983587265,-1.129075527191162,0.9717611074447632,-107.91761016845703,4.693463325500488,-142.65257263183594,116,1.0,-21.0,140,-2.4724032878875732,-0.038820866495370865,0.277836412191391,0.025639019906520844,0.00782743003219366,0.0034409333020448685,-0.9996347427368164
21618.08,-0.0661451667547226,0.002810210455209017,0.33247411251068115,-0.35893264412879944,-1.2877137660980225,1.3673909902572632,-83.35340881347656,-5.950698375701904,-182.90628051757812,116,1.0,-21.0,140,-2.4724032878875732,-0.038820866495370865,0.277836412191391,0.025639019906520844,0.00782743003219366,0.0034409333020448685,-0.9996347427368164
21620.058,-0.0661451667547226,0.002810210455209017,0.33247411251068115,-0.151206836104393,-1.0759180784225464,1.672229528427124,-53.99662780761719,-6.322254180908203,-234.36407470703125,116,1.0,-21.0,140,-2.4724032878875732,-0.038820866495370865,0.277836412191391,0.025639019906520844,0.00782743003219366,0.0034409333020448685,-0.9996347427368164
21622.049,-0.0661451667547226,0.002810210455209017,0.33247411251068115,0.08122025430202484,-0.43680185079574585,1.7216343879699707,-48.753116607666016,-5.150017738342285,-182.411376953125,116,1.0,-21.0,140,-2.4734323024749756,-0.03959118202328682,0.28035682439804077,0.02893236093223095,0.00915750302374363,0.011031373403966427,-0.9994785189628601
