timestamp,stateEstimate.vx,stateEstimate.vy,stateEstimate.vz,acc.x,acc.y,acc.z,gyro.x,gyro.y,gyro.z,range.zrange,mtf02.dpixelX,mtf02.dpixelY,mtf02.flowQual,locSrv.x,locSrv.y,locSrv.z,locSrv.qx,locSrv.qy,locSrv.qz,locSrv.qw
36233.875,0.0045902240090072155,-5.624980622087605e-05,0.0024326073471456766,0.03121301345527172,-0.01868608221411705,0.9990280866622925,0.20484523475170135,-0.1957421898841858,-0.0474720373749733,20,0.0,0.0,169,-0.4004802405834198,0.05592484772205353,0.14628693461418152,-0.003468218958005309,0.0005937300738878548,-0.006387580186128616,0.9999734163284302
36235.805,0.0045902240090072155,-5.624980622087605e-05,0.0024326073471456766,0.030764685943722725,-0.018314769491553307,0.9990552067756653,0.1252899169921875,-0.11804425716400146,-0.08679800480604172,20,0.0,0.0,169,-0.4004802405834198,0.05592484772205353,0.14628693461418152,-0.003468218958005309,0.0005937300738878548,-0.006387580186128616,0.9999734163284302
36237.835,0.0045902240090072155,-5.624980622087605e-05,0.0024326073471456766,0.030758611857891083,-0.01779731921851635,0.9993562698364258,-0.048045363277196884,0.020368151366710663,0.02330942265689373,20,0.0,0.0,169,-0.400392085313797,0.05608399957418442,0.1464499533176422,-0.004223645199090242,0.000876881938893348,-0.005875901784747839,0.999973475933075
36239.775,0.0047652628272771835,-3.2709423976484686e-05,0.015926070511341095,0.030873388051986694,-0.017324980348348618,0.9998291730880737,-0.1662454456090927,0.10551735758781433,0.028962086886167526,20,0.0,0.0,169,-0.400392085313797,0.05608399957418442,0.1464499533176422,-0.004223645199090242,0.000876881938893348,-0.005875901784747839,0.999973475933075
36241.756,0.0038581176195293665,5.806870831293054e-05,0.015920119360089302,0.030889304354786873,-0.017089370638132095,1.0002045631408691,-0.09951451420783997,0.11297465115785599,-0.03443068265914917,20,0.0,0.0,169,-0.400392085313797,0.05608399957418442,0.1464499533176422,-0.004223645199090242,0.000876881938893348,-0.005875901784747839,0.999973475933075
36243.776,0.004760358016937971,-0.0005128266639076173,-0.027112405747175217,0.030737724155187607,-0.01698654145002365,1.0003751516342163,-0.15820738673210144,0.06058543175458908,-0.025654524564743042,20,0.0,0.0,169,-0.40039145946502686,0.056080710142850876,0.14644448459148407,-0.004161050543189049,0.0008567884215153754,-0.0059722308069467545,0.9999731779098511
36245.709,0.00456668296828866,-0.00038234374369494617,-0.016302548348903656,0.030406882986426353,-0.017098041251301765,1.0003389120101929,-0.09939572960138321,-0.005367233883589506,0.03592485189437866,20,0.0,0.0,169,-0.40039145946502686,0.056080710142850876,0.14644448459148407,-0.004161050543189049,0.0008567884215153754,-0.0059722308069467545,0.9999731779098511
36247.723,0.00456668296828866,-0.00038234374369494617,-0.016302548348903656,0.030057497322559357,-0.017343632876873016,1.0002020597457886,0.015663404017686844,0.05795172229409218,0.150359109044075,20,0.0,0.0,169,-0.40039145946502686,0.056080710142850876,0.14644448459148407,-0.004161050543189049,0.0008567884215153754,-0.0059722308069467545,0.9999731779098511
36249.671,0.004673218820244074,-0.0002302892826264724,-0.003896953072398901,0.02984456717967987,-0.01753627508878708,0.9999420642852783,-0.11928652971982956,0.153112530708313,0.23491491377353668,20,0.0,0.0,169,-0.40039607882499695,0.056049518287181854,0.14645065367221832,-0.004066541325300932,0.0008122134022414684,-0.006021643057465553,0.9999732971191406
36251.657,0.004673218820244074,-0.0002302892826264724,-0.003896953072398901,0.02979164756834507,-0.017555199563503265,0.9995604157447815,-0.2323705404996872,0.1304345428943634,0.2756781578063965,20,0.0,0.0,169,-0.40039607882499695,0.056049518287181854,0.14645065367221832,-0.004066541325300932,0.0008122134022414684,-0.006021643057465553,0.9999732971191406
36253.684,0.004673218820244074,-0.0002302892826264724,-0.003896953072398901,0.029555078595876694,-0.01757263019680977,0.9991363286972046,-0.17704959213733673,0.01860450580716133,0.3041917383670807,20,0.0,0.0,169,-0.4005206227302551,0.05593154579401016,0.1462387889623642,-0.003640224225819111,0.0003825500898528844,-0.006206833757460117,0.9999740123748779
36255.614,0.004452848806977272,-0.0001084887480828911,0.008040742948651314,0.029287483543157578,-0.017666911706328392,0.9988749027252197,-0.032752200961112976,-0.007201079279184341,0.28564736247062683,20,0.0,0.0,169,-0.4005206227302551,0.05593154579401016,0.1462387889623642,-0.003640224225819111,0.0003825500898528844,-0.006206833757460117,0.9999740123748779
36257.626,0.004452848806977272,-0.0001084887480828911,0.008040742948651314,0.029352029785513878,-0.01756606064736843,0.9986984133720398,0.05133523792028427,0.16957850754261017,0.18305839598178864,20,0.0,0.0,169,-0.4005206227302551,0.05593154579401016,0.1462387889623642,-0.003640224225819111,0.0003825500898528844,-0.006206833757460117,0.9999740123748779
36259.575,0.004711982794106007,-0.0001359648595098406,0.008047198876738548,0.029516583308577538,-0.017177384346723557,0.9985711574554443,0.010649691335856915,0.26339757442474365,-0.05567822605371475,20,0.0,0.0,169,-0.4003616273403168,0.056024886667728424,0.14640028774738312,-0.004014591686427593,0.0008949049515649676,-0.005883488804101944,0.999974250793457
36261.57,0.004466230981051922,1.5611683920724317e-05,0.021662669256329536,0.029479848220944405,-0.01681567169725895,0.9985221028327942,-0.0542600080370903,0.012743113562464714,-0.19061563909053802,20,0.0,0.0,170,-0.4003616273403168,0.056024886667728424,0.14640028774738312,-0.004014591686427593,0.0008949049515649676,-0.005883488804101944,0.999974250793457
36263.585,0.0045753829181194305,-0.0005309531115926802,-0.02298840321600437,0.029462113976478577,-0.016655631363391876,0.9984806180000305,-0.1163700520992279,-0.254550963640213,-0.06598177552223206,20,0.0,0.0,170,-0.4003616273403168,0.056024886667728424,0.14640028774738312,-0.004014591686427593,0.0008949049515649676,-0.005883488804101944,0.999974250793457
36265.517,0.0045753829181194305,-0.0005309531115926802,-0.02298840321600437,0.02995101548731327,-0.01664012297987938,0.9986609220504761,-0.1783202886581421,-0.15040259063243866,0.06123962998390198,20,0.0,0.0,170,-0.4003832936286926,0.05606627091765404,0.14642536640167236,-0.004072954878211021,0.0008288449025712907,-0.005961018148809671,0.9999735951423645
36267.539,0.004378087818622589,-0.0004015918239019811,-0.012093751691281796,0.03063300997018814,-0.016764719039201736,0.9987340569496155,-0.18229393661022186,0.03236391767859459,0.07020322233438492,20,0.0,0.0,170,-0.4003832936286926,0.05606627091765404,0.14642536640167236,-0.004072954878211021,0.0008288449025712907,-0.005961018148809671,0.9999735951423645
36269.479,0.004603221081197262,-0.00036508365883491933,-0.012175461277365685,0.030980313196778297,-0.017038656398653984,0.9987841844558716,-0.15217921137809753,0.008107981644570827,-0.04146550968289375,20,0.0,0.0,170,-0.4003832936286926,0.05606627091765404,0.14642536640167236,-0.004072954878211021,0.0008288449025712907,-0.005961018148809671,0.9999735951423645
36271.459,0.004603221081197262,-0.00036508365883491933,-0.012175461277365685,0.030780117958784103,-0.017474601045250893,0.9991111159324646,-0.10459847003221512,0.0326758436858654,-0.14353547990322113,20,0.0,0.0,170,-0.40038052201271057,0.0560389906167984,0.14644041657447815,-0.00396373774856329,0.0008826435077935457,-0.0060372622683644295,0.9999735355377197
36273.489,0.004374824929982424,-0.00022120177163742483,0.000270173855824396,0.030141515657305717,-0.01793462596833706,0.9997388124465942,0.03150292858481407,-0.07207988947629929,-0.11790134757757187,20,0.0,0.0,170,-0.40038052201271057,0.0560389906167984,0.14644041657447815,-0.00396373774856329,0.0008826435077935457,-0.0060372622683644295,0.9999735355377197
36275.433,0.004374824929982424,-0.00022120177163742483,0.000270173855824396,0.029564952477812767,-0.018233658745884895,1.0005807876586914,0.07239991426467896,-0.25841400027275085,0.029062120243906975,20,0.0,0.0,170,-0.40038052201271057,0.0560389906167984,0.14644041657447815,-0.00396373774856329,0.0008826435077935457,-0.0060372622683644295,0.9999735355377197
36277.447,0.0041572460904717445,-8.470637840218842e-05,0.01233004592359066,0.02928398922085762,-0.018429284915328026,1.001247763633728,0.05812583863735199,-0.05169368162751198,0.2267971783876419,20,0.0,0.0,170,-0.4003780484199524,0.05604705214500427,0.14641448855400085,-0.004001609981060028,0.0008928492316044867,-0.005840177647769451,0.9999746084213257
36279.384,0.004456523340195417,-0.0001117340725613758,0.012341885827481747,0.02930896170437336,-0.01835668459534645,1.0014288425445557,0.10152929276227951,0.2919386029243469,0.20478348433971405,20,0.0,0.0,170,-0.4003780484199524,0.05604705214500427,0.14641448855400085,-0.004001609981060028,0.0008928492316044867,-0.005840177647769451,0.9999746084213257
36281.371,0.004456523340195417,-0.0001117340725613758,0.012341885827481747,0.029691893607378006,-0.018351001664996147,1.001088261604309,0.11974538862705231,0.3630896508693695,0.04744061455130577,20,0.0,0.0,170,-0.4003748893737793,0.05604536458849907,0.14645233750343323,-0.003951753955334425,0.0008930373005568981,-0.006120707374066114,0.9999731183052063
36283.393,0.004456523340195417,-0.0001117340725613758,0.012341885827481747,0.030158724635839462,-0.018443088978528976,1.000662922859192,0.07932686805725098,0.16659493744373322,0.07357107102870941,20,0.0,0.0,169,-0.4003748893737793,0.05604536458849907,0.14645233750343323,-0.003951753955334425,0.0008930373005568981,-0.006120707374066114,0.9999731183052063
36285.326,0.004504301119595766,-0.0005714235594496131,-0.019843095913529396,0.030587825924158096,-0.01848885975778103,1.0004982948303223,-0.0073168049566447735,-0.01477049384266138,0.025542987510561943,20,0.0,0.0,169,-0.4003748893737793,0.05604536458849907,0.14645233750343323,-0.003951753955334425,0.0008930373005568981,-0.006120707374066114,0.9999731183052063
36287.347,0.004504301119595766,-0.0005714235594496131,-0.019843095913529396,0.030805479735136032,-0.018469978123903275,1.000529170036316,-0.06843162328004837,-0.01825595274567604,-0.0002109603228745982,20,0.0,0.0,169,-0.40037956833839417,0.056040097028017044,0.14638763666152954,-0.004003298468887806,0.0008992812945507467,-0.006038944236934185,0.9999734163284302
36289.295,0.004510839469730854,-0.000524944975040853,-0.006837555207312107,0.03069387376308441,-0.018431853502988815,1.0005372762680054,-0.1262509971857071,0.1279297024011612,0.035927433520555496,20,0.0,0.0,169,-0.40037956833839417,0.056040097028017044,0.14638763666152954,-0.004003298468887806,0.0008992812945507467,-0.006038944236934185,0.9999734163284302
36291.269,0.004510839469730854,-0.000524944975040853,-0.006837555207312107,0.030482662841677666,-0.01848701946437359,1.0003389120101929,-0.26780733466148376,0.13126878440380096,0.048061784356832504,20,0.0,0.0,169,-0.40037956833839417,0.056040097028017044,0.14638763666152954,-0.004003298468887806,0.0008992812945507467,-0.006038944236934185,0.9999734163284302
36293.299,0.004510839469730854,-0.000524944975040853,-0.006837555207312107,0.030528655275702477,-0.018417784944176674,1.0000218152999878,-0.26459378004074097,-0.1900673508644104,0.01035421621054411,20,0.0,0.0,169,-0.40036070346832275,0.056049369275569916,0.14638195931911469,-0.0039715575985610485,0.0008768997504375875,-0.006043249275535345,0.9999735355377197
36295.242,0.004280815366655588,-0.0003795871452894062,0.005614208523184061,0.0310744047164917,-0.018239757046103477,0.9997860193252563,-0.10395223647356033,-0.38701295852661133,-0.1205315887928009,20,0.0,0.0,169,-0.40036070346832275,0.056049369275569916,0.14638195931911469,-0.0039715575985610485,0.0008768997504375875,-0.006043249275535345,0.9999735355377197
36297.248,0.004280815366655588,-0.0003795871452894062,0.005614208523184061,0.031557053327560425,-0.018241997808218002,0.9996985197067261,0.13679811358451843,-0.04203139618039131,-0.23149539530277252,20,0.0,0.0,169,-0.40036070346832275,0.056049369275569916,0.14638195931911469,-0.0039715575985610485,0.0008768997504375875,-0.006043249275535345,0.9999735355377197
36299.193,0.00462278351187706,-0.0004896823666058481,0.005696424748748541,0.031671494245529175,-0.018277250230312347,0.9995964765548706,0.1462331861257553,0.4793703556060791,-0.23126225173473358,20,0.0,0.0,169,-0.4004763662815094,0.05592476204037666,0.14620108902454376,-0.003523751860484481,0.0005381446098908782,-0.006418601144105196,0.9999730587005615
36301.183,0.004356535151600838,-0.00034365765168331563,0.01965990848839283,0.03157097473740578,-0.018278023228049278,0.9993650913238525,0.0862596333026886,0.5789732933044434,-0.17588931322097778,20,0.0,0.0,169,-0.4004763662815094,0.05592476204037666,0.14620108902454376,-0.003523751860484481,0.0005381446098908782,-0.006418601144105196,0.9999730587005615
36303.214,0.003900953335687518,-0.00031347840558737516,0.019655387848615646,0.03129075840115547,-0.018193552270531654,0.9992200136184692,0.16415159404277802,0.4030213952064514,-0.02664182521402836,20,0.0,0.0,170,-0.4004763662815094,0.05592476204037666,0.14620108902454376,-0.003523751860484481,0.0005381446098908782,-0.006418601144105196,0.9999730587005615
36305.136,0.004863677080720663,-0.0009102112962864339,-0.025061609223484993,0.031039614230394363,-0.017914297059178352,0.9992139339447021,0.2476087063550949,0.29287418723106384,0.08339796215295792,20,0.0,0.0,170,-0.4003652334213257,0.056076530367136,0.14644263684749603,-0.004068318288773298,0.0008724157232791185,-0.006052278447896242,0.9999729990959167
36307.15,0.004654675256460905,-0.000773851468693465,-0.01389327272772789,0.031147075816988945,-0.017724256962537766,0.9992055892944336,0.05292464792728424,0.16202205419540405,0.06801416724920273,20,0.0,0.0,170,-0.4003652334213257,0.056076530367136,0.14644263684749603,-0.004068318288773298,0.0008724157232791185,-0.006052278447896242,0.9999729990959167
36309.098,0.005063940770924091,-0.0008608706993982196,-0.01388903521001339,0.03157545626163483,-0.017690196633338928,0.9992796182632446,-0.09338495880365372,0.02131650596857071,-0.028058204799890518,20,0.0,0.0,170,-0.4003671705722809,0.05605649575591087,0.1464805006980896,-0.0039651282131671906,0.0009058393770828843,-0.006222896743565798,0.9999723434448242
36311.089,0.004823414143174887,-0.0007088447455316782,-0.0011854079784825444,0.032073501497507095,-0.017596226185560226,0.9994761943817139,0.05454127863049507,-0.0984271764755249,-0.2086896300315857,20,0.0,0.0,170,-0.4003671705722809,0.05605649575591087,0.1464805006980896,-0.0039651282131671906,0.0009058393770828843,-0.006222896743565798,0.9999723434448242
36313.114,0.004823414143174887,-0.0007088447455316782,-0.0011854079784825444,0.032302144914865494,-0.017564062029123306,0.9992903470993042,0.015236557461321354,-0.13867343962192535,-0.2366824746131897,20,0.0,0.0,170,-0.4003671705722809,0.05605649575591087,0.1464805006980896,-0.0039651282131671906,0.0009058393770828843,-0.006222896743565798,0.9999723434448242
36315.04,0.004823414143174887,-0.0007088447455316782,-0.0011854079784825444,0.032122351229190826,-0.017690951004624367,0.9988659024238586,-0.10379569232463837,-0.05385982245206833,-0.11232932657003403,20,0.0,0.0,170,-0.4003763198852539,0.05605248734354973,0.14647814631462097,-0.004014056175947189,0.0009562259656377137,-0.0061127739027142525,0.9999728798866272
36317.064,0.004593868274241686,-0.0005657054134644568,0.011124816723167896,0.03169089928269386,-0.017664723098278046,0.9987564086914062,-0.07488710433244705,0.05450661480426788,-0.0868644118309021,20,0.0,0.0,170,-0.4003763198852539,0.05605248734354973,0.14647814631462097,-0.004014056175947189,0.0009562259656377137,-0.0061127739027142525,0.9999728798866272
36319.013,0.005059983115643263,-0.0006087009096518159,0.01111040823161602,0.031428754329681396,-0.017304876819252968,0.9989015460014343,-0.1582309901714325,0.10262762010097504,-0.12591128051280975,20,0.0,0.0,170,-0.4003763198852539,0.05605248734354973,0.14647814631462097,-0.004014056175947189,0.0009562259656377137,-0.0061127739027142525,0.9999728798866272
36320.986,0.005059983115643263,-0.0006087009096518159,0.01111040823161602,0.03143523633480072,-0.016764158383011818,0.9988623261451721,-0.3605950176715851,0.07529634237289429,-0.025569504126906395,20,0.0,0.0,170,-0.4003802537918091,0.05608440935611725,0.14646251499652863,-0.004115855786949396,0.0008825062541291118,-0.006059023551642895,0.9999728798866272
36323.014,0.004801436793059111,-0.00044595892541110516,0.02485072612762451,0.031419865787029266,-0.01653345115482807,0.9984543919563293,-0.4430748224258423,0.07939604669809341,0.15644991397857666,20,0.0,0.0,170,-0.4003802537918091,0.05608440935611725,0.14646251499652863,-0.004115855786949396,0.0008825062541291118,-0.006059023551642895,0.9999728798866272
36324.945,0.0048136101104319096,-0.0008065886795520782,-0.020484505221247673,0.03129354491829872,-0.016689347103238106,0.9980023503303528,-0.2327025830745697,0.2508178949356079,0.09201164543628693,20,0.0,0.0,170,-0.4003802537918091,0.05608440935611725,0.14646251499652863,-0.004115855786949396,0.0008825062541291118,-0.006059023551642895,0.9999728798866272
36326.958,0.0048136101104319096,-0.0008065886795520782,-0.020484505221247673,0.03134170174598694,-0.01691400445997715,0.9976610541343689,-0.017241597175598145,0.33792489767074585,-0.056925591081380844,20,0.0,0.0,170,-0.4003802537918091,0.05608440935611725,0.14646251499652863,-0.004115855786949396,0.0008825062541291118,-0.006059023551642895,0.9999728798866272
36328.908,0.005225267261266708,-0.0007789854425936937,-0.020565394312143326,0.031435776501894,-0.017380934208631516,0.9973979592323303,-0.09821712225675583,0.2042032778263092,-0.06930378824472427,20,0.0,0.0,170,-0.40050092339515686,0.05592678114771843,0.14624762535095215,-0.003734718542546034,0.00042551133083179593,-0.0060671172104775906,0.9999746084213257
36330.898,0.004977392964065075,-0.0006419887067750096,-0.007821702398359776,0.03118751384317875,-0.01809532381594181,0.9973111748695374,-0.017910977825522423,0.2297179102897644,-0.04244217276573181,20,0.0,0.0,170,-0.4003899395465851,0.056081607937812805,0.14642658829689026,-0.0040346295572817326,0.0008970279013738036,-0.006276217754930258,0.999971866607666
36332.915,0.004746399819850922,-0.0004961940576322377,0.00454558664932847,0.030823374167084694,-0.018510116264224052,0.9971924424171448,0.180209681391716,0.33367323875427246,-0.05062359571456909,20,0.0,0.0,170,-0.4003899395465851,0.056081607937812805,0.14642658829689026,-0.0040346295572817326,0.0008970279013738036,-0.006276217754930258,0.999971866607666
36334.85,0.004746399819850922,-0.0004961940576322377,0.00454558664932847,0.030866719782352448,-0.01862146332859993,0.9971968531608582,0.04751961678266525,0.3282490372657776,-0.12000112235546112,20,0.0,0.0,170,-0.4003899395465851,0.056081607937812805,0.14642658829689026,-0.0040346295572817326,0.0008970279013738036,-0.006276217754930258,0.999971866607666
36336.863,0.004746399819850922,-0.0004961940576322377,0.00454558664932847,0.030999019742012024,-0.01874055713415146,0.9977424144744873,-0.15577960014343262,0.17942705750465393,-0.08331321179866791,20,0.0,0.0,170,-0.4005221724510193,0.05592953413724899,0.14624325931072235,-0.003587429178878665,0.0003657461202237755,-0.00630609318614006,0.9999736547470093
36338.819,0.004869719501584768,-0.0004295290564186871,0.018065638840198517,0.031057721003890038,-0.018741657957434654,0.9986941814422607,-0.3219926357269287,0.05783441662788391,0.10028008371591568,20,0.0,0.0,170,-0.4005221724510193,0.05592953413724899,0.14624325931072235,-0.003587429178878665,0.0003657461202237755,-0.00630609318614006,0.9999736547470093
36340.795,0.004869719501584768,-0.0004295290564186871,0.018065638840198517,0.03112059459090233,-0.018459761515259743,0.9996121525764465,-0.21636071801185608,0.16295623779296875,0.08610913157463074,20,0.0,0.0,170,-0.4005221724510193,0.05592953413724899,0.14624325931072235,-0.003587429178878665,0.0003657461202237755,-0.00630609318614006,0.9999736547470093
36342.826,0.004869719501584768,-0.0004295290564186871,0.018065638840198517,0.031143918633461,-0.01807442680001259,1.0001987218856812,0.05588477477431297,0.2073114663362503,-0.07616917043924332,20,0.0,0.0,170,-0.4005221724510193,0.05592953413724899,0.14624325931072235,-0.003587429178878665,0.0003657461202237755,-0.00630609318614006,0.9999736547470093
36344.753,0.004869719501584768,-0.0004295290564186871,0.018065638840198517,0.0310354083776474,-0.017802132293581963,1.0003114938735962,0.04570295661687851,0.07051068544387817,-0.13673783838748932,20,0.0,0.0,170,-0.40053439140319824,0.056000083684921265,0.14623312652111053,-0.003978712949901819,0.0002851440222002566,-0.005925542674958706,0.9999745488166809
36346.776,0.004764987621456385,-0.0008277564193122089,-0.014231680892407894,0.03096827305853367,-0.0177239291369915,1.0002080202102661,-0.07865260541439056,-0.09616422653198242,-0.011293260380625725,20,0.0,0.0,170,-0.40038546919822693,0.056039031594991684,0.14640769362449646,-0.004005288705229759,0.0008749336120672524,-0.0060803527012467384,0.9999731183052063
36348.716,0.0049205063842237,-0.000787735974881798,-0.0018732694443315268,0.03107166290283203,-0.01777948997914791,0.9999687075614929,-0.12689483165740967,-0.13057272136211395,0.17307165265083313,20,0.0,0.0,170,-0.40038546919822693,0.056039031594991684,0.14640769362449646,-0.004005288705229759,0.0008749336120672524,-0.0060803527012467384,0.9999731183052063
36350.697,0.0049205063842237,-0.000787735974881798,-0.0018732694443315268,0.03127829730510712,-0.01786668598651886,0.9997118711471558,-0.12969757616519928,-0.09820733219385147,0.27800795435905457,20,0.0,0.0,170,-0.40038546919822693,0.056039031594991684,0.14640769362449646,-0.004005288705229759,0.0008749336120672524,-0.0060803527012467384,0.9999731183052063
36352.723,0.0049205063842237,-0.000787735974881798,-0.0018732694443315268,0.03166937828063965,-0.017789065837860107,0.9995707869529724,-0.1329626888036728,0.05348605662584305,0.2139522135257721,20,0.0,0.0,170,-0.4003638029098511,0.05604024603962898,0.14644144475460052,-0.003984489478170872,0.0008358205668628216,-0.006123397033661604,0.9999730587005615
36354.659,0.004701577592641115,-0.0006518985028378665,0.010099089704453945,0.031881384551525116,-0.01754361391067505,0.9995599389076233,-0.1140783354640007,0.3319165110588074,0.07832881063222885,20,0.0,0.0,170,-0.4003638029098511,0.05604024603962898,0.14644144475460052,-0.003984489478170872,0.0008358205668628216,-0.006123397033661604,0.9999730587005615
36356.678,0.004701577592641115,-0.0006518985028378665,0.010099089704453945,0.031700920313596725,-0.01714182458817959,0.9995532631874084,-0.0011954857036471367,0.31297826766967773,-0.013774522580206394,20,0.0,0.0,170,-0.4003638029098511,0.05604024603962898,0.14644144475460052,-0.003984489478170872,0.0008358205668628216,-0.006123397033661604,0.9999730587005615
36358.618,0.005125909578055143,-0.000697421608492732,0.01013941690325737,0.031323738396167755,-0.01655358262360096,0.9994576573371887,0.07110923528671265,0.042074985802173615,-0.04864420369267464,20,0.0,0.0,170,-0.4003748595714569,0.0560699887573719,0.14643222093582153,-0.004064817447215319,0.0009194667800329626,-0.005994425155222416,0.9999733567237854
36360.609,0.00488109327852726,-0.0005440095555968583,0.023424241691827774,0.030646853148937225,-0.016055501997470856,0.9993396401405334,-0.13387219607830048,-0.029645439237356186,0.0372156985104084,20,0.0,0.0,170,-0.4003748595714569,0.0560699887573719,0.14643222093582153,-0.004064817447215319,0.0009194667800329626,-0.005994425155222416,0.9999733567237854
36362.628,0.00488109327852726,-0.0005440095555968583,0.023424241691827774,0.030195770785212517,-0.01597873866558075,0.9992219805717468,-0.1369413435459137,0.09365220367908478,0.16381347179412842,20,0.0,0.0,170,-0.4003748595714569,0.0560699887573719,0.14643222093582153,-0.004064817447215319,0.0009194667800329626,-0.005994425155222416,0.9999733567237854
36364.559,0.00488109327852726,-0.0005440095555968583,0.023424241691827774,0.030069757252931595,-0.016123386099934578,0.9992384314537048,0.10008168965578079,0.26046380400657654,0.11721140891313553,20,0.0,0.0,170,-0.4003855288028717,0.0560419075191021,0.14639346301555634,-0.003986721392720938,0.0008820351795293391,-0.006213532295078039,0.9999724626541138
36366.582,0.004780677147209644,-0.0008690867107361555,-0.00928930938243866,0.02982761338353157,-0.016134677454829216,0.9995357394218445,0.1448192447423935,0.27837690711021423,-0.0027641074266284704,20,0.0,0.0,170,-0.4003855288028717,0.0560419075191021,0.14639346301555634,-0.003986721392720938,0.0008820351795293391,-0.006213532295078039,0.9999724626541138
36368.522,0.005139239132404327,-0.0007766264607198536,-0.009293848648667336,0.029384762048721313,-0.015969689935445786,0.9998428821563721,0.016489485278725624,0.07366569340229034,-0.13178348541259766,20,0.0,0.0,170,-0.40050822496414185,0.055931709706783295,0.1463247835636139,-0.0034859234001487494,0.0004328549839556217,-0.006363323424011469,0.9999735951423645
36370.503,0.004914801102131605,-0.0006538374000228941,0.0026759423781186342,0.02914031594991684,-0.01586882211267948,1.0000016689300537,-0.18822430074214935,-0.03626784309744835,-0.12821125984191895,20,0.0,0.0,170,-0.40050822496414185,0.055931709706783295,0.1463247835636139,-0.0034859234001487494,0.0004328549839556217,-0.006363323424011469,0.9999735951423645
36372.542,0.004914801102131605,-0.0006538374000228941,0.0026759423781186342,0.028930455446243286,-0.016208069398999214,1.000141978263855,-0.3063579797744751,0.01088733784854412,-0.05152269825339317,20,0.0,0.0,170,-0.40050822496414185,0.055931709706783295,0.1463247835636139,-0.0034859234001487494,0.0004328549839556217,-0.006363323424011469,0.9999735951423645
36374.464,0.004914801102131605,-0.0006538374000228941,0.0026759423781186342,0.028699172660708427,-0.016870079562067986,1.0002140998840332,-0.24379196763038635,0.11467813700437546,-0.06586615741252899,20,0.0,0.0,170,-0.4003834128379822,0.05603165552020073,0.14640755951404572,-0.0039730253629386425,0.0009526148205623031,-0.006045857444405556,0.9999734163284302
36376.489,0.0047070905566215515,-0.0005258384626358747,0.014289834536612034,0.02884642779827118,-0.01759237051010132,1.0002167224884033,-0.26574915647506714,0.1714506596326828,-0.01456532534211874,20,0.0,0.0,170,-0.4003834128379822,0.05603165552020073,0.14640755951404572,-0.0039730253629386425,0.0009526148205623031,-0.006045857444405556,0.9999734163284302
36378.426,0.004916839301586151,-0.0004293131351005286,0.014342853799462318,0.029397228732705116,-0.018132584169507027,1.0000896453857422,-0.4535452127456665,0.16639907658100128,0.09189008921384811,20,0.0,0.0,170,-0.4003834128379822,0.05603165552020073,0.14640755951404572,-0.0039730253629386425,0.0009526148205623031,-0.006045857444405556,0.9999734163284302
36380.407,0.004916839301586151,-0.0004293131351005286,0.014342853799462318,0.03027832880616188,-0.018573837354779243,0.9995667338371277,-0.4324733018875122,0.15471357107162476,0.14386916160583496,20,0.0,0.0,170,-0.400382936000824,0.05609536170959473,0.14644142985343933,-0.004172388929873705,0.000865587149746716,-0.006065510679036379,0.9999725818634033
36382.45,0.004684088751673698,-0.00028035821742378175,0.027229268103837967,0.03109835647046566,-0.01882053166627884,0.9988845586776733,-0.1744781881570816,0.028363719582557678,0.11139775812625885,20,0.0,0.0,170,-0.400382936000824,0.05609536170959473,0.14644142985343933,-0.004172388929873705,0.000865587149746716,-0.006065510679036379,0.9999725818634033
36384.369,0.004684088751673698,-0.00028035821742378175,0.027229268103837967,0.031399067491292953,-0.018762996420264244,0.9986030459403992,0.0006887405179440975,0.034415435045957565,-0.014722762629389763,20,0.0,0.0,169,-0.400382936000824,0.05609536170959473,0.14644142985343933,-0.004172388929873705,0.000865587149746716,-0.006065510679036379,0.9999725818634033
36386.416,0.004684088751673698,-0.00028035821742378175,0.027229268103837967,0.03141351416707039,-0.018778448924422264,0.9987051486968994,-0.06113416701555252,0.17807692289352417,-0.06134674325585365,20,0.0,0.0,169,-0.40037962794303894,0.05606934800744057,0.1464611291885376,-0.004053953103721142,0.00087594089563936,-0.005975512322038412,0.9999735355377197
36388.328,0.004787409212440252,-0.0007586242281831801,-0.005758014507591724,0.031526800245046616,-0.019249483942985535,0.9986284971237183,-0.11031559109687805,0.24011121690273285,-0.056190554052591324,20,0.0,0.0,169,-0.40037962794303894,0.05606934800744057,0.1464611291885376,-0.004053953103721142,0.00087594089563936,-0.005975512322038412,0.9999735355377197
36390.309,0.004787409212440252,-0.0007586242281831801,-0.005758014507591724,0.03173054754734039,-0.01990676298737526,0.9984396696090698,-0.05277647078037262,0.2671264410018921,-0.03345293924212456,20,0.0,0.0,169,-0.40037962794303894,0.05606934800744057,0.1464611291885376,-0.004053953103721142,0.00087594089563936,-0.005975512322038412,0.9999735355377197
36392.347,0.004787409212440252,-0.0007586242281831801,-0.005758014507591724,0.03193656727671623,-0.020143290981650352,0.998434841632843,0.02156727761030197,0.20817051827907562,0.03674222528934479,20,0.0,0.0,169,-0.40038901567459106,0.056064292788505554,0.14642411470413208,-0.0038948021829128265,0.0009537728037685156,-0.006310519762337208,0.9999721050262451
36394.271,0.00458018621429801,-0.0006259152432903647,0.0058779967948794365,0.03206077218055725,-0.019693555310368538,0.998477041721344,-0.15953592956066132,0.012681558728218079,-0.011353776790201664,20,0.0,0.0,169,-0.40038901567459106,0.056064292788505554,0.14642411470413208,-0.0038948021829128265,0.0009537728037685156,-0.006310519762337208,0.9999721050262451
36396.347,0.00458018621429801,-0.0006259152432903647,0.0058779967948794365,0.03215530514717102,-0.018542194738984108,0.9983329772949219,-0.2155219316482544,-0.06377585232257843,-0.10944546014070511,20,0.0,0.0,169,-0.40038901567459106,0.056064292788505554,0.14642411470413208,-0.0038948021829128265,0.0009537728037685156,-0.006310519762337208,0.9999721050262451
36398.234,0.001518035656772554,0.0012411281932145357,0.018531164154410362,0.03194476291537285,-0.017332514747977257,0.9981160163879395,-0.09403868019580841,0.06038038060069084,-0.0829177275300026,20,0.0,0.0,169,-0.400358110666275,0.05604769289493561,0.14645451307296753,-0.0038894410245120525,0.0008346549584530294,-0.006197525653988123,0.999972939491272
36400.213,0.001518035656772554,0.0012411281932145357,0.018531164154410362,0.03178669884800911,-0.017134007066488266,0.9978846311569214,-0.0023927600122988224,0.14894671738147736,-0.2051573097705841,20,0.0,0.0,169,-0.400358110666275,0.05604769289493561,0.14645451307296753,-0.0038894410245120525,0.0008346549584530294,-0.006197525653988123,0.999972939491272
36402.242,0.001518035656772554,0.0012411281932145357,0.018531164154410362,0.032443564385175705,-0.017315814271569252,0.9979872107505798,-0.08565443009138107,0.017687266692519188,-0.6861253380775452,20,0.0,0.0,169,-0.40053343772888184,0.05597015470266342,0.14621929824352264,-0.003835841314867139,0.0003473519755061716,-0.006014608778059483,0.9999744892120361
36404.182,0.0012876434484496713,0.0013684396399185061,0.03093489445745945,0.03362166881561279,-0.01679513230919838,0.9985683560371399,-0.25792187452316284,-0.044642459601163864,-1.2211995124816895,20,0.0,0.0,169,-0.40053343772888184,0.05597015470266342,0.14621929824352264,-0.003835841314867139,0.0003473519755061716,-0.006014608778059483,0.9999744892120361
36406.225,0.0018412729259580374,0.0008145851898007095,-0.01219781581312418,0.0356450155377388,-0.016912417486310005,0.9994602203369141,-0.22181305289268494,0.16551238298416138,-1.7936345338821411,20,0.0,0.0,169,-0.40053343772888184,0.05597015470266342,0.14621929824352264,-0.003835841314867139,0.0003473519755061716,-0.006014608778059483,0.9999744892120361
36408.136,-0.0008455460192635655,0.0025065464433282614,-0.012387055903673172,0.03778519481420517,-0.017978357151150703,1.000146746635437,-0.21535280346870422,0.4549647271633148,-2.6540703773498535,20,0.0,0.0,169,-0.4003725051879883,0.05606340244412422,0.14643533527851105,-0.003987248055636883,0.0008950222982093692,-0.006010892800986767,0.9999735951423645
36410.118,-0.0010643578134477139,0.002642228966578841,-0.0008266170625574887,0.03918454051017761,-0.01883074827492237,1.0002869367599487,-0.31071025133132935,0.7758374810218811,-3.80072283744812,20,0.0,0.0,169,-0.4003725051879883,0.05606340244412422,0.14643533527851105,-0.003987248055636883,0.0008950222982093692,-0.006010892800986767,0.9999735951423645
36412.147,-0.0010643578134477139,0.002642228966578841,-0.0008266170625574887,0.03974363952875137,-0.019232239574193954,0.9997227787971497,-0.31166476011276245,0.9528387784957886,-4.791574954986572,20,0.0,0.0,169,-0.4003725051879883,0.05606340244412422,0.14643533527851105,-0.003987248055636883,0.0008950222982093692,-0.006010892800986767,0.9999735951423645
36414.08,-0.0010643578134477139,0.002642228966578841,-0.0008266170625574887,0.04052183777093887,-0.019639302045106888,0.9983298778533936,-0.19952857494354248,0.9828481674194336,-5.707775115966797,20,0.0,0.0,169,-0.40037262439727783,0.05607938393950462,0.14642636477947235,-0.004226378630846739,0.0008024803246371448,-0.00591794541105628,0.9999732971191406
36416.13,-0.001273585483431816,0.0027730069123208523,0.01038450188934803,0.042126674205064774,-0.0197360347956419,0.9965456128120422,-0.17228470742702484,1.1251174211502075,-6.2990617752075195,20,0.0,0.0,169,-0.40037262439727783,0.05607938393950462,0.14642636477947235,-0.004226378630846739,0.0008024803246371448,-0.00591794541105628,0.9999732971191406
36418.051,-0.003869805485010147,0.004440288059413433,0.01025390625,0.04470646753907204,-0.018668482080101967,0.9948821663856506,-0.35572290420532227,1.2685747146606445,-5.815694332122803,20,0.0,0.0,169,-0.40037262439727783,0.05607938393950462,0.14642636477947235,-0.004226378630846739,0.0008024803246371448,-0.00591794541105628,0.9999732971191406
36420.021,-0.003869805485010147,0.004440288059413433,0.01025390625,0.04809499904513359,-0.016756586730480194,0.9940650463104248,-0.48654454946517944,1.260668396949768,-4.061944961547852,20,0.0,0.0,169,-0.4005105495452881,0.05597700923681259,0.14625629782676697,-0.0038033188320696354,0.0005180494626984,-0.006140659097582102,0.9999737739562988
36422.051,-0.0041092270985245705,0.004568361211568117,0.02261616848409176,0.050130754709243774,-0.014795503579080105,0.9938802719116211,-0.2159438580274582,1.3318527936935425,-1.5957485437393188,20,0.0,0.0,169,-0.4005105495452881,0.05597700923681259,0.14625629782676697,-0.0038033188320696354,0.0005180494626984,-0.006140659097582102,0.9999737739562988
36423.988,-0.0041092270985245705,0.004568361211568117,0.02261616848409176,0.04975847527384758,-0.013402307406067848,0.9943045973777771,0.23457607626914978,1.495553970336914,0.5110596418380737,20,0.0,0.0,169,-0.40033942461013794,0.056041132658720016,0.14638455212116241,-0.0040575480088591576,0.0009560921462252736,-0.005874146707355976,0.9999741315841675
36426.039,-0.0041092270985245705,0.004568361211568117,0.02261616848409176,0.04764457046985626,-0.012463677674531937,0.9952303171157837,0.34634560346603394,1.720503568649292,1.3862799406051636,20,0.0,0.0,169,-0.40033942461013794,0.056041132658720016,0.14638455212116241,-0.0040575480088591576,0.0009560921462252736,-0.005874146707355976,0.9999741315841675
36427.945,-0.004342334344983101,0.0052359625697135925,-0.013602743856608868,0.04483933374285698,-0.012135060504078865,0.9960991144180298,0.176008939743042,1.9244383573532104,1.1924986839294434,20,0.0,0.0,169,-0.40033942461013794,0.056041132658720016,0.14638455212116241,-0.0040575480088591576,0.0009560921462252736,-0.005874146707355976,0.9999741315841675
36429.926,-0.004342334344983101,0.0052359625697135925,-0.013602743856608868,0.042450159788131714,-0.01209196262061596,0.9970541596412659,0.06422241032123566,1.942280888557434,0.9531033635139465,20,0.0,0.0,169,-0.40033429861068726,0.056090641766786575,0.14643730223178864,-0.004084963817149401,0.0010466226376593113,-0.005993808154016733,0.9999731779098511
36431.955,-0.004564030561596155,0.005366776138544083,-0.002915393328294158,0.04036528989672661,-0.011924820020794868,0.9980922341346741,-0.0860709398984909,1.709210753440857,1.246653437614441,20,0.0,0.0,169,-0.40033429861068726,0.056090641766786575,0.14643730223178864,-0.004084963817149401,0.0010466226376593113,-0.005993808154016733,0.9999731779098511
36433.888,-0.004564030561596155,0.005366776138544083,-0.002915393328294158,0.03771926462650299,-0.012039951048791409,0.9990750551223755,-0.31158557534217834,1.6000487804412842,1.9212827682495117,20,0.0,0.0,169,-0.40033429861068726,0.056090641766786575,0.14643730223178864,-0.004084963817149401,0.0010466226376593113,-0.005993808154016733,0.9999731779098511
36435.947,-0.004564030561596155,0.005366776138544083,-0.002915393328294158,0.03389174863696098,-0.0126058803871274,1.0001566410064697,-0.2992129921913147,1.7117301225662231,2.551542043685913,20,0.0,0.0,169,-0.4004368782043457,0.055971063673496246,0.1462288796901703,-0.0038284421898424625,0.0006818925030529499,-0.006041513755917549,0.999974250793457
36437.849,-0.00718153640627861,0.007089945487678051,0.007167924661189318,0.029377110302448273,-0.013678392395377159,1.0011558532714844,-0.017530323937535286,1.8409194946289062,2.899906873703003,20,0.0,0.0,169,-0.4004368782043457,0.055971063673496246,0.1462288796901703,-0.0038284421898424625,0.0006818925030529499,-0.006041513755917549,0.999974250793457
36439.83,-0.00718153640627861,0.007089945487678051,0.007167924661189318,0.025275100022554398,-0.015002388507127762,1.0015171766281128,0.199701726436615,1.9372369050979614,2.9787142276763916,20,0.0,0.0,169,-0.4004368782043457,0.055971063673496246,0.1462288796901703,-0.0038284421898424625,0.0006818925030529499,-0.006041513755917549,0.999974250793457
36441.868,-0.00718153640627861,0.007089945487678051,0.007167924661189318,0.022569885477423668,-0.01596052758395672,1.0012116432189941,0.19505253434181213,1.8336093425750732,2.933004379272461,20,0.0,0.0,169,-0.4003082513809204,0.05605623126029968,0.14640985429286957,-0.004028169438242912,0.0011899939272552729,-0.0060049500316381454,0.9999731779098511
36443.795,-0.00741532351821661,0.00721787940710783,0.018690407276153564,0.021228430792689323,-0.016416989266872406,1.0008317232131958,0.2027629017829895,1.4961215257644653,3.2108211517333984,20,0.0,0.0,169,-0.4003082513809204,0.05605623126029968,0.14640985429286957,-0.004028169438242912,0.0011899939272552729,-0.0060049500316381454,0.9999731779098511
36445.849,-0.00741532351821661,0.00721787940710783,0.018690407276153564,0.02028820477426052,-0.016710877418518066,1.0003621578216553,0.29140862822532654,1.2588191032409668,4.02437162399292,20,0.0,0.0,169,-0.4003082513809204,0.05605623126029968,0.14640985429286957,-0.004028169438242912,0.0011899939272552729,-0.0060049500316381454,0.9999731779098511
36447.752,-0.00741532351821661,0.00721787940710783,0.018690407276153564,0.018930558115243912,-0.01688525825738907,0.9998311400413513,0.2297859489917755,1.1146159172058105,4.85717248916626,20,0.0,0.0,169,-0.4002630412578583,0.0560428686439991,0.14640626311302185,-0.004012382123619318,0.0011922427220270038,-0.005944257602095604,0.9999736547470093
36449.739,-0.0071162269450724125,0.007654055021703243,-0.013438585214316845,0.016837993636727333,-0.017546508461236954,0.9994733333587646,0.0789370983839035,1.0842258930206299,5.041829586029053,20,0.0,0.0,169,-0.4002630412578583,0.0560428686439991,0.14640626311302185,-0.004012382123619318,0.0011922427220270038,-0.005944257602095604,0.9999736547470093
36451.764,-0.0071162269450724125,0.007654055021703243,-0.013438585214316845,0.015225429087877274,-0.018295032903552055,0.9996771812438965,0.019694041460752487,1.1057158708572388,4.315308570861816,20,0.0,0.0,169,-0.4003841280937195,0.05594554543495178,0.14623917639255524,-0.0037572754081338644,0.0008656407007947564,-0.006006203591823578,0.9999746084213257
36453.706,-0.007344620767980814,0.007765122689306736,-0.003386165713891387,0.01327273715287447,-0.01810733787715435,1.0001635551452637,-0.11687111109495163,1.0869061946868896,3.0427610874176025,20,0.0,0.0,169,-0.4003841280937195,0.05594554543495178,0.14623917639255524,-0.0037572754081338644,0.0008656407007947564,-0.006006203591823578,0.9999746084213257
36455.746,-0.007344620767980814,0.007765122689306736,-0.003386165713891387,0.00937133003026247,-0.020263420417904854,1.0002573728561401,-0.009728694334626198,0.9635974764823914,0.33771416544914246,20,0.0,0.0,169,-0.4003841280937195,0.05594554543495178,0.14623917639255524,-0.0037572754081338644,0.0008656407007947564,-0.006006203591823578,0.9999746084213257
36457.658,-0.00951455533504486,0.009321337565779686,-0.003422718495130539,0.005568488035351038,-0.023880159482359886,0.9995970726013184,0.09698176383972168,0.440857857465744,-4.5984063148498535,20,0.0,0.0,169,-0.4003694951534271,0.05594396963715553,0.14636588096618652,-0.0035294760018587112,0.0008980101556517184,-0.0062903668731451035,0.9999735951423645
36459.639,-0.00976447481662035,0.009436534717679024,0.007800391409546137,0.0066271559335291386,-0.02440941147506237,0.9984054565429688,-0.1138269305229187,-0.16262249648571014,-7.778438091278076,20,0.0,0.0,169,-0.4003694951534271,0.05594396963715553,0.14636588096618652,-0.0035294760018587112,0.0008980101556517184,-0.0062903668731451035,0.9999735951423645
36461.668,-0.00976447481662035,0.009436534717679024,0.007800391409546137,0.01408284343779087,-0.021338332444429398,0.9979930520057678,-0.4550928473472595,-0.2322181612253189,-3.82192325592041,20,0.0,0.0,169,-0.4003694951534271,0.05594396963715553,0.14636588096618652,-0.0035294760018587112,0.0008980101556517184,-0.0062903668731451035,0.9999735951423645
36463.599,-0.00976447481662035,0.009436534717679024,0.007800391409546137,0.02166091464459896,-0.017614826560020447,0.9988069534301758,-0.347840279340744,-0.05029021576046944,5.097306251525879,20,0.0,0.0,169,-0.40038472414016724,0.05595621466636658,0.14623835682868958,-0.003636182751506567,0.000860092171933502,-0.006276249885559082,0.9999732971191406
36465.661,-0.010003422386944294,0.009546319022774696,0.01866014488041401,0.02422148920595646,-0.015354597009718418,1.000240445137024,0.39320138096809387,-0.005783868487924337,10.193596839904785,20,0.0,0.0,169,-0.40038472414016724,0.05595621466636658,0.14623835682868958,-0.003636182751506567,0.000860092171933502,-0.006276249885559082,0.9999732971191406
36467.571,-0.009484983049333096,0.009533355012536049,-0.022516189143061638,0.021066129207611084,-0.014551724307239056,1.0017125606536865,0.8383787274360657,-0.4197981059551239,8.949962615966797,20,0.0,0.0,169,-0.400394469499588,0.05595153570175171,0.14632239937782288,-0.0035496382042765617,0.000990826403722167,-0.00642195250838995,0.9999725818634033
36469.547,-0.009722240269184113,0.009649325162172318,-0.012617256492376328,0.014396479353308678,-0.016550011932849884,1.002805471420288,0.46994510293006897,-1.0316104888916016,5.67043399810791,20,0.0,0.0,169,-0.400394469499588,0.05595153570175171,0.14632239937782288,-0.0035496382042765617,0.000990826403722167,-0.00642195250838995,0.9999725818634033
36471.572,-0.009722240269184113,0.009649325162172318,-0.012617256492376328,0.008299163542687893,-0.018415024504065514,1.003006100654602,-0.2145031839609146,-1.244279146194458,2.1971840858459473,20,0.0,0.0,169,-0.400394469499588,0.05595153570175171,0.14632239937782288,-0.0035496382042765617,0.000990826403722167,-0.00642195250838995,0.9999725818634033
36473.507,-0.009722240269184113,0.009649325162172318,-0.012617256492376328,0.006598301697522402,-0.016890227794647217,1.0019885301589966,-0.6551536917686462,-1.135338306427002,-0.5793441534042358,20,0.0,0.0,169,-0.4002605080604553,0.05603451654314995,0.14645619690418243,-0.00392397353425622,0.0012784026330336928,-0.006128731183707714,0.9999727010726929
36475.565,-0.009945739060640335,0.009768175892531872,-0.002974197268486023,0.01003801729530096,-0.015265335328876972,1.0011194944381714,-0.48898744583129883,-1.0417097806930542,-0.746182382106781,20,0.0,0.0,169,-0.4002605080604553,0.05603451654314995,0.14645619690418243,-0.00392397353425622,0.0012784026330336928,-0.006128731183707714,0.9999727010726929
36477.466,-0.011916684918105602,0.011277696117758751,-0.002798526780679822,0.013562606647610664,-0.015807142481207848,1.000739574432373,-0.028477957472205162,-1.2385915517807007,1.467366337776184,20,0.0,0.0,169,-0.4002605080604553,0.05603451654314995,0.14645619690418243,-0.00392397353425622,0.0012784026330336928,-0.006128731183707714,0.9999727010726929
36479.446,-0.011916684918105602,0.011277696117758751,-0.002798526780679822,0.013137826696038246,-0.017823878675699234,1.0008944272994995,0.3044406473636627,-1.5797580480575562,3.027784585952759,20,0.0,0.0,169,-0.4002857208251953,0.05604405701160431,0.14640991389751434,-0.003921730909496546,0.001153499586507678,-0.0059931459836661816,0.9999737739562988
36481.476,-0.012160313315689564,0.011401334777474403,0.007972676306962967,0.009875721298158169,-0.01971721276640892,1.0009561777114868,0.2354559600353241,-1.9121726751327515,1.8506159782409668,20,0.0,0.0,169,-0.4002857208251953,0.05604405701160431,0.14640991389751434,-0.003921730909496546,0.001153499586507678,-0.0059931459836661816,0.9999737739562988
36483.409,-0.012160313315689564,0.011401334777474403,0.007972676306962967,0.008101748302578926,-0.020672954618930817,1.0004959106445312,-0.10556285083293915,-2.293354034423828,-0.9619531035423279,20,0.0,0.0,169,-0.4002857208251953,0.05604405701160431,0.14640991389751434,-0.003921730909496546,0.001153499586507678,-0.0059931459836661816,0.9999737739562988
36485.473,-0.012160313315689564,0.011401334777474403,0.007972676306962967,0.009319943375885487,-0.021030213683843613,0.9999593496322632,-0.5259921550750732,-2.4085118770599365,-2.7351434230804443,20,0.0,0.0,169,-0.40031129121780396,0.05605098977684975,0.14645668864250183,-0.003918507136404514,0.001154667348600924,-0.006099690683186054,0.9999731183052063
36487.382,-0.014272288419306278,0.012997348792850971,0.018409017473459244,0.013091168366372585,-0.020780673250555992,0.9994772672653198,-0.6603478193283081,-2.3647196292877197,-2.496954917907715,20,0.0,0.0,169,-0.40031129121780396,0.05605098977684975,0.14645668864250183,-0.003918507136404514,0.001154667348600924,-0.006099690683186054,0.9999731183052063
36489.355,-0.012624578550457954,0.011653291992843151,-0.021577924489974976,0.017916617915034294,-0.019694700837135315,0.9992758631706238,-0.42999088764190674,-2.551819324493408,-1.2390910387039185,20,0.0,0.0,169,-0.40031129121780396,0.05605098977684975,0.14645668864250183,-0.003918507136404514,0.001154667348600924,-0.006099690683186054,0.9999731183052063
36491.384,-0.012624578550457954,0.011653291992843151,-0.021577924489974976,0.020954040810465813,-0.018518393859267235,0.9996247887611389,-0.28473666310310364,-2.7900259494781494,-0.090695321559906,20,0.0,0.0,169,-0.40046608448028564,0.05593906342983246,0.14625273644924164,-0.0035598077811300755,0.0006105165812186897,-0.006099948659539223,0.9999748468399048
36493.313,-0.01285374816507101,0.011760546825826168,-0.011997399851679802,0.021117178723216057,-0.017451701685786247,1.0006531476974487,-0.26442375779151917,-2.8038742542266846,0.19804689288139343,20,0.0,0.0,169,-0.40046608448028564,0.05593906342983246,0.14625273644924164,-0.0035598077811300755,0.0006105165812186897,-0.006099948659539223,0.9999748468399048
36495.371,-0.01285374816507101,0.011760546825826168,-0.011997399851679802,0.020140204578638077,-0.01812754198908806,1.0017740726470947,-0.14975810050964355,-2.586801767349243,-1.2808786630630493,20,0.0,0.0,169,-0.40046608448028564,0.05593906342983246,0.14625273644924164,-0.0035598077811300755,0.0006105165812186897,-0.006099948659539223,0.9999748468399048
36497.275,-0.014928030781447887,0.01331785973161459,-0.001280918950214982,0.023620614781975746,-0.0206911563873291,1.002517580986023,-0.10707145929336548,-2.340769052505493,-4.975132465362549,20,0.0,0.0,169,-0.4005177617073059,0.0559079647064209,0.1462780237197876,-0.0034751463681459427,0.000513443083036691,-0.006253219675272703,0.9999743103981018
36499.256,-0.014928030781447887,0.01331785973161459,-0.001280918950214982,0.04156871512532234,-0.021616391837596893,1.001710295677185,-0.19019192457199097,-3.075129270553589,-8.165996551513672,20,0.0,0.0,169,-0.4005177617073059,0.0559079647064209,0.1462780237197876,-0.0034751463681459427,0.000513443083036691,-0.006253219675272703,0.9999743103981018
36501.285,-0.014928030781447887,0.01331785973161459,-0.001280918950214982,0.07726217061281204,-0.020671237260103226,0.9989954233169556,-0.5083612203598022,-3.036682605743408,-7.4705352783203125,20,0.0,0.0,169,-0.4005388617515564,0.05593669414520264,0.14623329043388367,-0.003556962590664625,0.00038813252467662096,-0.0062386514618992805,0.9999741911888123
36503.225,-0.015167123638093472,0.013420609757304192,0.00911781471222639,0.08805888146162033,-0.01876700483262539,0.9973676204681396,-0.9031423926353455,0.9105213284492493,-4.252124786376953,20,0.0,0.0,169,-0.4005388617515564,0.05593669414520264,0.14623329043388367,-0.003556962590664625,0.00038813252467662096,-0.0062386514618992805,0.9999741911888123
36505.269,-0.015167123638093472,0.013420609757304192,0.00911781471222639,0.029014181345701218,-0.013667169958353043,0.9980718493461609,-0.9952502846717834,1.0960155725479126,-2.0443954467773438,20,0.0,0.0,169,-0.4005388617515564,0.05593669414520264,0.14623329043388367,-0.003556962590664625,0.00038813252467662096,-0.0062386514618992805,0.9999741911888123
36507.185,-0.016979116946458817,0.01485638041049242,0.009092099964618683,-0.06301817297935486,-0.011037261225283146,0.9986955523490906,-0.7418239116668701,-6.907972812652588,-2.170741558074951,20,0.0,0.0,169,-0.4005569517612457,0.05595303326845169,0.14626683294773102,-0.003633640706539154,0.0003633532323874533,-0.006141679361462593,0.9999744892120361
36509.16,-0.013955093920230865,0.013668181374669075,-0.018656762316823006,-0.09269726276397705,-0.02261599339544773,0.9988507628440857,-0.43921422958374023,-11.252885818481445,-6.86253547668457,20,0.0,0.0,169,-0.4005569517612457,0.05595303326845169,0.14626683294773102,-0.003633640706539154,0.0003633532323874533,-0.006141679361462593,0.9999744892120361
36511.191,-0.013955093920230865,0.013668181374669075,-0.018656762316823006,-0.021520787850022316,-0.03020615689456463,0.9937443733215332,-0.30254125595092773,-4.959278583526611,-12.387880325317383,20,0.0,0.0,169,-0.4005569517612457,0.05595303326845169,0.14626683294773102,-0.003633640706539154,0.0003633532323874533,-0.006141679361462593,0.9999744892120361
36513.12,-0.013955093920230865,0.013668181374669075,-0.018656762316823006,0.10231852531433105,-0.014188659377396107,0.9864837527275085,-0.17865046858787537,6.370960235595703,-5.703710079193115,20,0.0,0.0,169,-0.40059131383895874,0.055935055017471313,0.14620783925056458,-0.0035636702086776495,0.00011361936049070209,-0.0063521116971969604,0.9999735355377197
36515.182,-0.014189288020133972,0.013763620518147945,-0.009358846582472324,0.187194362282753,0.011095781810581684,0.9781978130340576,0.24651232361793518,12.733546257019043,13.740321159362793,20,0.0,0.0,169,-0.40059131383895874,0.055935055017471313,0.14620783925056458,-0.0035636702086776495,0.00011361936049070209,-0.0063521116971969604,0.9999735355377197
36517.093,-0.01596064306795597,0.015169044025242329,-0.009922164492309093,0.15718165040016174,0.010883877985179424,0.9794535040855408,0.6157481074333191,4.976061820983887,23.44013786315918,20,0.0,0.0,169,-0.40059131383895874,0.055935055017471313,0.14620783925056458,-0.0035636702086776495,0.00011361936049070209,-0.0063521116971969604,0.9999735355377197
36519.069,-0.01596064306795597,0.015169044025242329,-0.009922164492309093,0.04080282524228096,-0.011501504108309746,0.9838342666625977,0.43108925223350525,-12.834125518798828,7.935018062591553,20,0.0,0.0,169,-0.4004470109939575,0.05608462542295456,0.14648325741291046,-0.003966452553868294,0.0008011593017727137,-0.006053075660020113,0.999973475933075
36521.101,-0.01620747335255146,0.015280283987522125,0.0005854191840626299,-0.0576208271086216,-0.02913767099380493,0.9853172302246094,-0.599947988986969,-19.148332595825195,-19.47904396057129,20,0.0,0.0,169,-0.4004470109939575,0.05608462542295456,0.14648325741291046,-0.003966452553868294,0.0008011593017727137,-0.006053075660020113,0.999973475933075
36523.035,-0.01620747335255146,0.015280283987522125,0.0005854191840626299,-0.04205659404397011,-0.030440784990787506,0.9833078980445862,-1.589544653892517,-5.99923849105835,-35.10752868652344,20,0.0,0.0,169,-0.4006403684616089,0.05596721172332764,0.14626659452915192,-0.0035592319909483194,1.250184141099453e-06,-0.006279523018747568,0.9999739527702332
36525.085,-0.016451405361294746,0.015373344533145428,0.01076609268784523,0.05286041647195816,-0.008666935376822948,0.9769336581230164,-1.4662030935287476,7.264152526855469,-23.306270599365234,20,0.0,0.0,169,-0.4006403684616089,0.05596721172332764,0.14626659452915192,-0.0035592319909483194,1.250184141099453e-06,-0.006279523018747568,0.9999739527702332
36526.991,-0.018121084198355675,0.016743246465921402,0.00894515123218298,0.12492091953754425,0.01308505516499281,0.9708624482154846,-0.30203357338905334,8.01107120513916,11.125960350036621,20,0.0,0.0,170,-0.4006403684616089,0.05596721172332764,0.14626659452915192,-0.0035592319909483194,1.250184141099453e-06,-0.006279523018747568,0.9999739527702332
36528.967,-0.011972799897193909,0.015836188569664955,0.00991430040448904,0.11913376301527023,0.003992704674601555,0.9744758009910583,0.9232305884361267,5.459582805633545,37.18001174926758,20,0.0,0.0,170,-0.40060320496559143,0.05598100274801254,0.1462092101573944,-0.0037296204827725887,0.0002405341510893777,-0.006127770058810711,0.999974250793457
36530.998,-0.011049714870750904,0.015295482240617275,-0.018417946994304657,0.06823419779539108,-0.02651369571685791,0.9833399057388306,1.2080875635147095,2.3483598232269287,27.782249450683594,20,0.0,0.0,170,-0.40060320496559143,0.05598100274801254,0.1462092101573944,-0.0037296204827725887,0.0002405341510893777,-0.006127770058810711,0.999974250793457
36532.93,-0.011049714870750904,0.015295482240617275,-0.018417946994304657,0.03398852422833443,-0.03676540404558182,0.9905261993408203,0.7320815920829773,-6.68937873840332,-3.2639617919921875,20,0.0,0.0,170,-0.40060320496559143,0.05598100274801254,0.1462092101573944,-0.0037296204827725887,0.0002405341510893777,-0.006127770058810711,0.999974250793457
36534.98,-0.011049714870750904,0.015295482240617275,-0.018417946994304657,0.027599696069955826,-0.018931856378912926,0.9966511130332947,0.059631846845149994,-12.638612747192383,-13.798060417175293,20,0.0,0.0,170,-0.40050816535949707,0.05606495216488838,0.1463899314403534,-0.003949550911784172,0.00037572887958958745,-0.006075072567909956,0.999973714351654
36536.892,-0.013229616917669773,0.01674831658601761,-0.011024033650755882,0.04065972566604614,-0.0008114632801152766,1.0016204118728638,0.037220608443021774,-3.2534546852111816,8.409326553344727,20,0.0,0.0,170,-0.40050816535949707,0.05606495216488838,0.1463899314403534,-0.003949550911784172,0.00037572887958958745,-0.006075072567909956,0.999973714351654
36538.883,-0.013229616917669773,0.01674831658601761,-0.011024033650755882,0.0668053850531578,0.0029486678540706635,1.006850242614746,0.6613759994506836,10.706208229064941,33.28750228881836,20,0.0,0.0,170,-0.40050816535949707,0.05606495216488838,0.1463899314403534,-0.003949550911784172,0.00037572887958958745,-0.006075072567909956,0.999973714351654
36540.901,-0.013229616917669773,0.01674831658601761,-0.011024033650755882,0.08155917376279831,-0.005674951709806919,1.0129852294921875,1.598567247390747,10.087788581848145,33.31203842163086,20,0.0,0.0,170,-0.40065431594848633,0.055972710251808167,0.1461528241634369,-0.0037148597184568644,-1.6182882973225787e-05,-0.006014607846736908,0.9999750852584839
36542.843,-0.013521022163331509,0.01684083789587021,-0.0006574372528120875,0.06040549278259277,-0.014387018978595734,1.0201354026794434,1.9833025932312012,-2.616893768310547,15.686616897583008,20,0.0,0.0,170,-0.40065431594848633,0.055972710251808167,0.1461528241634369,-0.0037148597184568644,-1.6182882973225787e-05,-0.006014607846736908,0.9999750852584839
36544.894,-0.013521022163331509,0.01684083789587021,-0.0006574372528120875,0.020839227363467216,-0.019198011606931686,1.026237964630127,1.3085592985153198,-10.109145164489746,4.715466022491455,20,0.0,0.0,170,-0.4006192982196808,0.05589500069618225,0.14615727961063385,-0.0032953887712210417,0.0002271724952151999,-0.006403955165296793,0.9999740719795227
36546.8,-0.015738792717456818,0.018295971676707268,0.0118732750415802,-0.00500281760469079,-0.02683292143046856,1.0330582857131958,0.22472697496414185,-5.177379131317139,7.860044002532959,20,0.0,0.0,170,-0.4006192982196808,0.05589500069618225,0.14615727961063385,-0.0032953887712210417,0.0002271724952151999,-0.006403955165296793,0.9999740719795227
36548.781,-0.016269028186798096,0.017026526853442192,0.01191459596157074,0.008313566446304321,-0.029886798933148384,1.0369983911514282,-0.5753611922264099,4.2840657234191895,14.789407730102539,20,0.0,0.0,169,-0.4006192982196808,0.05589500069618225,0.14615727961063385,-0.0032953887712210417,0.0002271724952151999,-0.006403955165296793,0.9999740719795227
36550.805,-0.01513244491070509,0.016363155096769333,-0.02606458030641079,0.0778876543045044,-0.016280818730592728,1.0312280654907227,-0.8508122563362122,8.806735038757324,14.843521118164062,20,0.0,0.0,169,-0.4005241394042969,0.05606237053871155,0.1463121622800827,-0.003998477943241596,0.00043392274528741837,-0.006003489252179861,0.9999738931655884
36552.738,-0.01538039930164814,0.016467910259962082,-0.016697416082024574,0.14494702219963074,-0.0028703443240374327,1.0178767442703247,-0.8613970279693604,6.066956043243408,6.583393096923828,20,0.0,0.0,169,-0.4005241394042969,0.05606237053871155,0.1463121622800827,-0.003998477943241596,0.00043392274528741837,-0.006003489252179861,0.9999738931655884
36554.814,-0.01538039930164814,0.016467910259962082,-0.016697416082024574,0.12127619981765747,-0.005861463025212288,1.0059843063354492,-1.3658905029296875,-0.2201879918575287,-2.518324851989746,20,0.0,0.0,169,-0.4005241394042969,0.05606237053871155,0.1463121622800827,-0.003998477943241596,0.00043392274528741837,-0.006003489252179861,0.9999738931655884
36556.703,-0.01746605522930622,0.017916543409228325,-0.003336986992508173,0.03743034973740578,-0.00139256427064538,1.0030162334442139,-3.2282116413116455,-4.832901954650879,-5.278339385986328,20,0.0,0.0,169,-0.40058690309524536,0.05593316629528999,0.14619460701942444,-0.0035997808445245028,0.000249713339144364,-0.006159075535833836,0.9999746084213257
36558.681,-0.01746605522930622,0.017916543409228325,-0.003336986992508173,-0.038032058626413345,0.03692855313420296,1.0011258125305176,-6.3971734046936035,-7.283962249755859,-4.417948246002197,20,0.0,0.0,169,-0.40058690309524536,0.05593316629528999,0.14619460701942444,-0.0035997808445245028,0.000249713339144364,-0.006159075535833836,0.9999746084213257
36560.719,-0.01746605522930622,0.017916543409228325,-0.003336986992508173,-0.09254571050405502,0.10076777637004852,0.9953038096427917,-9.621761322021484,-9.340599060058594,-7.061903953552246,20,0.0,0.0,169,-0.40058690309524536,0.05593316629528999,0.14619460701942444,-0.0035997808445245028,0.000249713339144364,-0.006159075535833836,0.9999746084213257
36562.646,-0.01746605522930622,0.017916543409228325,-0.003336986992508173,-0.11160009354352951,0.16962064802646637,0.9969955682754517,-11.4183931350708,-4.2796525955200195,-10.947598457336426,20,0.0,0.0,169,-0.4005054831504822,0.05610725283622742,0.14633196592330933,-0.004160271026194096,0.0004374323762021959,-0.005888624116778374,0.9999740123748779
36564.693,-0.01772201433777809,0.01801963523030281,0.006936562247574329,-0.06517639011144638,0.2394033670425415,1.004809856414795,-11.653143882751465,7.915866851806641,-5.678706169128418,20,0.0,0.0,169,-0.4005054831504822,0.05610725283622742,0.14633196592330933,-0.004160271026194096,0.0004374323762021959,-0.005888624116778374,0.9999740123748779
36566.615,-0.01923135295510292,0.019256269559264183,0.006914344150573015,0.01467157807201147,0.2937106490135193,1.0169649124145508,-10.098069190979004,7.642014980316162,11.805229187011719,20,0.0,0.0,169,-0.4005054831504822,0.05610725283622742,0.14633196592330933,-0.004160271026194096,0.0004374323762021959,-0.005888624116778374,0.9999740123748779
36568.59,-0.01923135295510292,0.019256269559264183,0.006914344150573015,0.05451427027583122,0.31006407737731934,1.03074049949646,-8.831942558288574,-7.525032043457031,34.146141052246094,20,0.0,0.0,169,-0.4007446765899658,0.05620284005999565,0.14604279398918152,-0.004428758751600981,-0.0001858412433648482,-0.006138323340564966,0.999971330165863
36570.615,-0.013089185580611229,0.019938118755817413,-0.019546061754226685,0.031374987214803696,0.2871001362800598,1.0471407175064087,-10.704910278320312,-11.626280784606934,43.79035186767578,20,0.0,0.0,169,-0.4007446765899658,0.05620284005999565,0.14604279398918152,-0.004428758751600981,-0.0001858412433648482,-0.006138323340564966,0.999971330165863
36572.547,-0.013089185580611229,0.019938118755817413,-0.019546061754226685,-0.01542387343943119,0.24454469978809357,1.0714269876480103,-14.470428466796875,-3.0234310626983643,30.4733943939209,20,0.0,0.0,169,-0.4007174074649811,0.05648482218384743,0.14625385403633118,-0.005972671788185835,-0.0008928194874897599,-0.0045929416082799435,0.9999712109565735
36574.603,-0.013365362770855427,0.020037338137626648,-0.010243498720228672,-0.056060515344142914,0.21569079160690308,1.0938565731048584,-17.84044647216797,-8.084758758544922,6.157754898071289,20,0.0,0.0,169,-0.4007174074649811,0.05648482218384743,0.14625385403633118,-0.005972671788185835,-0.0008928194874897599,-0.0045929416082799435,0.9999712109565735
36576.509,-0.015162426978349686,0.02139449305832386,-0.006458932068198919,-0.0744546428322792,0.23999592661857605,1.1177085638046265,-19.602519989013672,-18.827594757080078,-8.345547676086426,20,0.0,0.0,169,-0.4007174074649811,0.05648482218384743,0.14625385403633118,-0.005972671788185835,-0.0008928194874897599,-0.0045929416082799435,0.9999712109565735
36578.493,-0.015162426978349686,0.02139449305832386,-0.006458932068198919,-0.065769262611866,0.34501713514328003,1.1535844802856445,-19.746965408325195,-9.277664184570312,1.3433939218521118,20,0.0,0.0,169,-0.4008355140686035,0.05670253187417984,0.1462358683347702,-0.00662987818941474,-0.0012155798031017184,-0.004645013250410557,0.999966561794281
36580.519,-0.015462333336472511,0.021504677832126617,0.00405849376693368,-0.03561430796980858,0.5009145140647888,1.2316211462020874,-16.381860733032227,8.727171897888184,22.747344970703125,20,0.0,0.0,169,-0.4008355140686035,0.05670253187417984,0.1462358683347702,-0.00662987818941474,-0.0012155798031017184,-0.004645013250410557,0.999966561794281
36582.451,-0.015462333336472511,0.021504677832126617,0.00405849376693368,-0.020362790673971176,0.6080089211463928,1.3704992532730103,-6.895137786865234,12.916548728942871,32.17758560180664,20,0.0,0.0,169,-0.4008355140686035,0.05670253187417984,0.1462358683347702,-0.00662987818941474,-0.0012155798031017184,-0.004645013250410557,0.999966561794281
36584.501,-0.015462333336472511,0.021504677832126617,0.00405849376693368,-0.04480598494410515,0.5900846719741821,1.5311212539672852,8.125519752502441,7.841440200805664,33.45185852050781,20,0.0,0.0,169,-0.4006142020225525,0.05706736445426941,0.14642393589019775,-0.007392811123281717,-0.00040334020741283894,-0.004410941153764725,0.9999628663063049
36586.413,-0.018213476985692978,0.023817535489797592,0.04037312790751457,-0.06643669307231903,0.49161389470100403,1.654065489768982,24.021465301513672,3.2781870365142822,35.22053909301758,20,0.0,0.0,169,-0.4006142020225525,0.05706736445426941,0.14642393589019775,-0.007392811123281717,-0.00040334020741283894,-0.004410941153764725,0.9999628663063049
36588.41,-0.018213476985692978,0.023817535489797592,0.04037312790751457,-0.056100644171237946,0.38677147030830383,1.6609724760055542,36.93105697631836,2.679931402206421,33.82932662963867,20,0.0,0.0,169,-0.4006142020225525,0.05706736445426941,0.14642393589019775,-0.007392811123281717,-0.00040334020741283894,-0.004410941153764725,0.9999628663063049
36590.421,-0.018213476985692978,0.023817535489797592,0.04037312790751457,-0.08166567981243134,0.30552053451538086,1.5402789115905762,40.64530563354492,10.994220733642578,37.07429504394531,20,0.0,0.0,169,-0.4009285867214203,0.05735282599925995,0.14631208777427673,-0.008509918116033077,-0.0009976940928027034,-0.0026418573688715696,0.9999598860740662
36592.356,-0.014335031621158123,0.013749180361628532,0.013575255870819092,-0.06218181550502777,0.2527965009212494,1.3215593099594116,36.36756134033203,16.58609962463379,41.76612854003906,20,0.0,0.0,169,-0.4009285867214203,0.05735282599925995,0.14631208777427673,-0.008509918116033077,-0.0009976940928027034,-0.0026418573688715696,0.9999598860740662
36594.416,-0.014335031621158123,0.013749180361628532,0.013575255870819092,0.10890056937932968,0.21436987817287445,1.0484286546707153,27.22511863708496,4.719280242919922,42.8006477355957,20,0.0,0.0,169,-0.40075427293777466,0.05781363323330879,0.14745862782001495,-0.005103763192892075,-0.0021038397680968046,-0.004295875784009695,0.9999755620956421
36596.317,-0.017673812806606293,0.01698075421154499,0.0687067061662674,0.17900130152702332,0.10302256047725677,0.8075460195541382,13.595704078674316,-16.850915908813477,25.714399337768555,20,0.0,0.0,169,-0.40075427293777466,0.05781363323330879,0.14745862782001495,-0.005103763192892075,-0.0021038397680968046,-0.004295875784009695,0.9999755620956421
36598.298,-0.017673812806606293,0.01698075421154499,0.0687067061662674,-0.020504454150795937,-0.20529435575008392,0.5855302810668945,4.462369918823242,-32.457855224609375,-24.89653778076172,20,0.0,0.0,169,-0.40075427293777466,0.05781363323330879,0.14745862782001495,-0.005103763192892075,-0.0021038397680968046,-0.004295875784009695,0.9999755620956421
36600.336,-0.017673812806606293,0.01698075421154499,0.0687067061662674,-0.10630446672439575,-0.7736979126930237,0.4725346863269806,10.789108276367188,-35.014564514160156,-66.70165252685547,20,0.0,0.0,169,-0.4014791250228882,0.058495476841926575,0.1463865488767624,-0.008322114124894142,-0.0010069705313071609,0.0031602783128619194,0.9999598860740662
36602.26,-0.01799129508435726,0.01736958511173725,0.07942105084657669,0.09235703945159912,-1.5394129753112793,0.5407341718673706,27.113178253173828,-41.5042724609375,-64.65741729736328,20,0.0,0.0,169,-0.4014791250228882,0.058495476841926575,0.1463865488767624,-0.008322114124894142,-0.0010069705313071609,0.0031602783128619194,0.9999598860740662
36604.311,-0.01799129508435726,0.01736958511173725,0.07942105084657669,0.2503439784049988,-2.262204885482788,0.7756885886192322,43.647056579589844,-55.4975471496582,-35.60551071166992,20,0.0,0.0,169,-0.4014791250228882,0.058495476841926575,0.1463865488767624,-0.008322114124894142,-0.0010069705313071609,0.0031602783128619194,0.9999598860740662
36606.22,-0.01799129508435726,0.01736958511173725,0.07942105084657669,0.1458551436662674,-2.6617605686187744,1.2103650569915771,52.767459869384766,-46.874420166015625,-7.067671298980713,20,0.0,0.0,169,-0.4011835753917694,0.05862769857048988,0.14713189005851746,-0.004134152550250292,-0.006203501485288143,-0.0035031477455049753,0.9999661445617676
36608.206,-0.01801302284002304,0.018926071003079414,0.05705873668193817,-0.013631611131131649,-2.660088062286377,1.7729636430740356,52.34762954711914,-21.627859115600586,-18.650135040283203,20,0.0,0.0,169,-0.4011835753917694,0.05862769857048988,0.14713189005851746,-0.004134152550250292,-0.006203501485288143,-0.0035031477455049753,0.9999661445617676
36610.243,-0.023980846628546715,0.003911790903657675,0.06077990680932999,-0.023111941292881966,-2.4766063690185547,2.4356865882873535,45.71970748901367,-11.901341438293457,-77.68611907958984,20,2.0,0.0,167,-0.4011835753917694,0.05862769857048988,0.14713189005851746,-0.004134152550250292,-0.006203501485288143,-0.0035031477455049753,0.9999661445617676
36612.167,-0.02313854545354843,0.003173408331349492,0.027923163026571274,0.04234186187386513,-2.2449069023132324,3.2339422702789307,33.56565475463867,-12.803016662597656,-117.56027221679688,20,2.0,0.0,167,-0.4015776515007019,0.058121707290410995,0.1475123018026352,-0.0011699256720021367,-0.006902170833200216,0.0003885881451424211,0.9999755024909973
36614.219,-0.02313854545354843,0.003173408331349492,0.027923163026571274,0.039332065731287,-2.030658721923828,3.6803948879241943,25.10787582397461,-9.580733299255371,-41.22443771362305,20,2.0,0.0,167,-0.4015776515007019,0.058121707290410995,0.1475123018026352,-0.0011699256720021367,-0.006902170833200216,0.0003885881451424211,0.9999755024909973
36616.126,-0.02313854545354843,0.003173408331349492,0.027923163026571274,-0.040801722556352615,-2.276029109954834,3.2574963569641113,45.38534927368164,-5.267248153686523,149.98013305664062,20,2.0,0.0,167,-0.4015776515007019,0.058121707290410995,0.1475123018026352,-0.0011699256720021367,-0.006902170833200216,0.0003885881451424211,0.9999755024909973
36618.112,-0.02313854545354843,0.003173408331349492,0.027923163026571274,-0.13601090013980865,-2.9989566802978516,2.2786099910736084,76.3545150756836,-1.7323881387710571,271.3669738769531,20,2.0,0.0,167,-0.401889830827713,0.05645366385579109,0.14863277971744537,0.0004614400677382946,-0.00645645335316658,-0.0018123032059520483,0.9999774694442749
36620.136,-0.030982302501797676,0.004656894598156214,0.21456347405910492,-0.15647117793560028,-3.3476719856262207,1.2379438877105713,70.31458282470703,-0.5353206396102905,134.61732482910156,20,2.0,0.0,167,-0.401889830827713,0.05645366385579109,0.14863277971744537,0.0004614400677382946,-0.00645645335316658,-0.0018123032059520483,0.9999774694442749
36622.068,-0.030982302501797676,0.004656894598156214,0.21456347405910492,0.010097864083945751,-2.7029483318328857,0.28795960545539856,22.884052276611328,-13.10623550415039,-152.596435546875,20,2.0,0.0,167,-0.40175339579582214,0.05472257360816002,0.1506303995847702,0.005546545144170523,-0.006024550646543503,-0.0022672994527965784,0.9999639391899109
36624.118,-0.031227583065629005,0.004897777456790209,0.2255917638540268,0.26277732849121094,-1.5990424156188965,-0.3054579198360443,-15.129621505737305,-22.881664276123047,-294.5887451171875,20,2.0,0.0,167,-0.40175339579582214,0.05472257360816002,0.1506303995847702,0.005546545144170523,-0.006024550646543503,-0.0022672994527965784,0.9999639391899109
36626.03,-0.031227583065629005,0.004897777456790209,0.2255917638540268,0.2645075023174286,-0.5573746562004089,-0.32670480012893677,-30.58540916442871,-9.265020370483398,-203.45883178710938,20,2.0,0.0,167,-0.40175339579582214,0.05472257360816002,0.1506303995847702,0.005546545144170523,-0.006024550646543503,-0.0022672994527965784,0.9999639391899109
36628.01,-0.031227583065629005,0.004897777456790209,0.2255917638540268,0.04313330724835396,0.3844623565673828,0.0445837639272213,-51.91188430786133,4.550553321838379,-77.14488983154297,20,2.0,0.0,167,-0.4020026922225952,0.05281691998243332,0.15084542334079742,0.004906290210783482,-0.009362833574414253,0.005857097450643778,0.9999269843101501
36630.048,-0.032839685678482056,0.005319945979863405,0.2174176722764969,-0.022146301344037056,1.2297147512435913,0.44092124700546265,-86.17484283447266,-0.40074464678764343,-5.613317012786865,20,14.0,13.0,166,-0.4020026922225952,0.05281691998243332,0.15084542334079742,0.004906290210783482,-0.009362833574414253,0.005857097450643778,0.9999269843101501
36631.976,-0.007894854061305523,0.03213336691260338,0.1793302595615387,0.07329921424388885,1.715350866317749,0.9033496975898743,-124.45735931396484,-3.07340931892395,56.166717529296875,20,14.0,13.0,166,-0.4020026922225952,0.05281691998243332,0.15084542334079742,0.004906290210783482,-0.009362833574414253,0.005857097450643778,0.9999269843101501
36634.032,-0.007894854061305523,0.03213336691260338,0.1793302595615387,0.24736444652080536,1.5919888019561768,1.4695942401885986,-156.5185546875,3.5011348724365234,49.206207275390625,20,14.0,13.0,166,-0.40236079692840576,0.04978647455573082,0.15088379383087158,-0.0018316807691007853,-0.006827852223068476,-0.007077480666339397,0.9999499917030334
36635.934,-0.008198566734790802,0.031691309064626694,0.18909935653209686,0.28760939836502075,1.3055726289749146,2.2153618335723877,-183.5956573486328,-3.9177165031433105,-66.95915222167969,20,14.0,13.0,166,-0.40236079692840576,0.04978647455573082,0.15088379383087158,-0.0018316807691007853,-0.006827852223068476,-0.007077480666339397,0.9999499917030334
36637.925,-0.010684279724955559,0.029799960553646088,0.17683638632297516,0.19386254251003265,1.9675372838974,3.024873733520508,-216.90435791015625,-26.099031448364258,-220.09986877441406,20,14.0,13.0,166,-0.40236079692840576,0.04978647455573082,0.15088379383087158,-0.0018316807691007853,-0.006827852223068476,-0.007077480666339397,0.9999499917030334
36639.943,-0.010684279724955559,0.029799960553646088,0.17683638632297516,0.08851979672908783,3.4490604400634766,3.4353280067443848,-229.19790649414062,-30.670379638671875,-270.17132568359375,20,14.0,13.0,166,-0.4027307331562042,0.048101454973220825,0.15190395712852478,-0.009276214055716991,-0.007420174777507782,-0.019892433658242226,0.9997316002845764
36641.877,-0.011029927060008049,0.029155241325497627,0.1878809630870819,0.13443249464035034,4.180459499359131,3.2394373416900635,-149.169189453125,-11.807137489318848,-88.05054473876953,20,14.0,13.0,166,-0.4027307331562042,0.048101454973220825,0.15190395712852478,-0.009276214055716991,-0.007420174777507782,-0.019892433658242226,0.9997316002845764
36643.927,-0.011029927060008049,0.029155241325497627,0.1878809630870819,0.14741438627243042,3.1832473278045654,2.6755683422088623,-2.8279716968536377,5.458153247833252,256.1499328613281,20,14.0,13.0,166,-0.4025869071483612,0.04690902680158615,0.15449804067611694,-0.018642200157046318,-0.006255040876567364,-0.026254354044795036,0.9994618892669678
36645.854,-0.01135964598506689,0.028520764783024788,0.1988767385482788,0.08192215114831924,1.1838456392288208,1.989800214767456,100.86565399169922,8.010297775268555,417.31988525390625,20,14.0,13.0,166,-0.4025869071483612,0.04690902680158615,0.15449804067611694,-0.018642200157046318,-0.006255040876567364,-0.026254354044795036,0.9994618892669678
36647.823,-0.019697219133377075,0.03617216274142265,0.3848765194416046,0.09747432917356491,-0.3241407871246338,1.079027771949768,125.26930236816406,-2.7120583057403564,192.169677734375,20,14.0,13.0,166,-0.4025869071483612,0.04690902680158615,0.15449804067611694,-0.018642200157046318,-0.006255040876567364,-0.026254354044795036,0.9994618892669678
36649.855,-0.019697219133377075,0.03617216274142265,0.3848765194416046,0.14900386333465576,-0.3474788963794708,0.0738384947180748,95.90835571289062,-19.32063102722168,-174.76434326171875,20,15.0,6.0,159,-0.40292811393737793,0.04658655822277069,0.15697292983531952,-0.017948532477021217,-0.010337240062654018,-0.030908914282917976,0.9993075728416443
36651.78,-0.019697219133377075,0.03617216274142265,0.3848765194416046,0.151082381606102,0.8517491221427917,-0.477144330739975,65.07882690429688,-20.387296676635742,-360.6867370605469,22,15.0,6.0,159,-0.40292811393737793,0.04658655822277069,0.15697292983531952,-0.017948532477021217,-0.010337240062654018,-0.030908914282917976,0.9993075728416443
36653.831,-0.004451796878129244,0.007501400541514158,0.3549678325653076,0.005269213113933802,2.170281171798706,-0.33399537205696106,80.71963500976562,-7.011077404022217,-253.26522827148438,22,15.0,6.0,159,-0.40292811393737793,0.04658655822277069,0.15697292983531952,-0.017948532477021217,-0.010337240062654018,-0.030908914282917976,0.9993075728416443
36655.741,-0.004451796878129244,0.007501400541514158,0.3549678325653076,-0.16255727410316467,2.8981802463531494,0.3703358769416809,127.87428283691406,-7.324003219604492,44.38865280151367,22,15.0,6.0,159,-0.4026731848716736,0.047195613384246826,0.15796373784542084,0.0023445780389010906,-0.0075482577085494995,-0.005870813503861427,0.9999516010284424
36657.723,-0.0049918950535357,0.010174042545258999,0.28564614057540894,-0.05071213096380234,2.726731061935425,1.3619555234909058,150.33482360839844,-18.694486618041992,325.96551513671875,22,15.0,6.0,159,-0.4026731848716736,0.047195613384246826,0.15796373784542084,0.0023445780389010906,-0.0075482577085494995,-0.005870813503861427,0.9999516010284424
36659.757,-0.0049918950535357,0.010174042545258999,0.28564614057540894,0.11913403123617172,1.6925362348556519,2.2895667552948,125.42610168457031,-26.791202545166016,444.79461669921875,22,15.0,6.0,159,-0.4025362730026245,0.04800081253051758,0.15975259244441986,-0.005300517193973064,-0.011633467860519886,0.00035233207745477557,0.9999182224273682
36661.685,-0.0053271157667040825,0.009971629828214645,0.29690316319465637,-0.03414708003401756,0.42235592007637024,2.8866419792175293,68.60880279541016,-37.90395736694336,375.0727233886719,22,15.0,6.0,159,-0.4025362730026245,0.04800081253051758,0.15975259244441986,-0.005300517193973064,-0.011633467860519886,0.00035233207745477557,0.9999182224273682
36663.735,-0.0053271157667040825,0.009971629828214645,0.29690316319465637,-0.3748573064804077,-0.5513291358947754,3.093937397003174,22.828603744506836,-55.75580596923828,198.2585906982422,22,15.0,6.0,159,-0.4025362730026245,0.04800081253051758,0.15975259244441986,-0.005300517193973064,-0.011633467860519886,0.00035233207745477557,0.9999182224273682
36665.651,-0.0053271157667040825,0.009971629828214645,0.29690316319465637,-0.5042795538902283,-1.1395174264907837,3.0749614238739014,23.039201736450195,-62.4564323425293,-12.426532745361328,22,15.0,6.0,159,-0.4027959704399109,0.048654839396476746,0.16251251101493835,0.002533440478146076,-0.014377659186720848,0.008848358877003193,0.999854326248169
36667.635,-0.01453353464603424,0.012604281306266785,0.46580395102500916,-0.21669498085975647,-1.3446234464645386,2.892259120941162,46.591548919677734,-41.240196228027344,-189.20416259765625,22,15.0,6.0,159,-0.4027959704399109,0.048654839396476746,0.16251251101493835,0.002533440478146076,-0.014377659186720848,0.008848358877003193,0.999854326248169
36669.665,-0.01453353464603424,0.012604281306266785,0.46580395102500916,0.09937629103660583,-1.0820413827896118,2.6927778720855713,51.5947265625,-22.08515167236328,-224.74827575683594,22,15.0,6.0,159,-0.4027959704399109,0.048654839396476746,0.16251251101493835,0.002533440478146076,-0.014377659186720848,0.008848358877003193,0.999854326248169
36671.588,-0.01453353464603424,0.012604281306266785,0.46580395102500916,0.11850574612617493,-0.6043907403945923,2.2641642093658447,38.523643493652344,-28.520917892456055,-95.08120727539062,27,23.0,-8.0,156,-0.40286388993263245,0.04891626909375191,0.16533009707927704,0.005638610105961561,-0.017074065282940865,0.007464806083589792,0.999810516834259
36673.65,0.006208054255694151,-0.010540978983044624,0.4209337830543518,0.060081034898757935,-0.7899218797683716,1.486366868019104,47.96892166137695,-34.01889419555664,86.04688262939453,27,23.0,-8.0,156,-0.40286388993263245,0.04891626909375191,0.16533009707927704,0.005638610105961561,-0.017074065282940865,0.007464806083589792,0.999810516834259
36675.551,0.006208054255694151,-0.010540978983044624,0.4209337830543518,-0.07073377817869186,-1.8973256349563599,0.9507673382759094,92.22235870361328,-19.154556274414062,195.55801391601562,27,23.0,-8.0,156,-0.40286388993263245,0.04891626909375191,0.16533009707927704,0.005638610105961561,-0.017074065282940865,0.007464806083589792,0.999810516834259
36677.531,0.006208054255694151,-0.010540978983044624,0.4209337830543518,-0.2977532148361206,-2.979053258895874,0.8608521819114685,116.60633850097656,-6.5428314208984375,124.09426879882812,27,23.0,-8.0,156,-0.40333110094070435,0.048169855028390884,0.16849245131015778,0.0059943366795778275,-0.016133857890963554,-7.050694694044068e-05,0.9998518824577332
36679.561,-0.0017469763988628983,-0.01104837004095316,0.5221647024154663,-0.2766267955303192,-3.411048650741577,1.0947645902633667,96.10030364990234,-16.642789840698242,-108.1476058959961,27,23.0,-8.0,156,-0.40333110094070435,0.048169855028390884,0.16849245131015778,0.0059943366795778275,-0.016133857890963554,-7.050694694044068e-05,0.9998518824577332
36681.494,-0.0017469763988628983,-0.01104837004095316,0.5221647024154663,-0.1815611720085144,-3.4393982887268066,1.473447322845459,63.729103088378906,-26.319568634033203,-196.57192993164062,27,23.0,-8.0,156,-0.40333110094070435,0.048169855028390884,0.16849245131015778,0.0059943366795778275,-0.016133857890963554,-7.050694694044068e-05,0.9998518824577332
36683.543,-0.0017469763988628983,-0.01104837004095316,0.5221647024154663,-0.3189832866191864,-3.1468541622161865,1.619107723236084,34.059505462646484,-23.272010803222656,-61.07019805908203,27,23.0,-8.0,156,-0.4037208557128906,0.04731708765029907,0.17127756774425507,0.010478522628545761,-0.01559869572520256,-0.007617703173309565,0.9997944831848145
36685.465,-0.0020916194189339876,-0.011044224724173546,0.5344048738479614,-0.48402145504951477,-2.080104351043701,1.4829649925231934,-21.978313446044922,-24.50682258605957,-21.203704833984375,27,23.0,-8.0,156,-0.4037208557128906,0.04731708765029907,0.17127756774425507,0.010478522628545761,-0.01559869572520256,-0.007617703173309565,0.9997944831848145
36687.44,-0.0020916194189339876,-0.011044224724173546,0.5344048738479614,-0.3588479161262512,-0.32593926787376404,1.2258495092391968,-89.90282440185547,-25.262163162231445,-133.24241638183594,27,23.0,-8.0,156,-0.4037208557128906,0.04731708765029907,0.17127756774425507,0.010478522628545761,-0.01559869572520256,-0.007617703173309565,0.9997944831848145
36689.471,-0.0020916194189339876,-0.011044224724173546,0.5344048738479614,-0.09048891067504883,0.9645628929138184,0.9979804754257202,-136.05108642578125,-14.9957275390625,-32.37812042236328,27,23.0,-8.0,156,-0.4039093554019928,0.045863520354032516,0.17421135306358337,0.015707088634371758,-0.01584523171186447,0.005090345628559589,0.9997381567955017
36691.402,-0.013415228575468063,0.025471750646829605,0.5348215699195862,0.08169939368963242,1.0018471479415894,0.816396176815033,-161.9518585205078,1.0893590450286865,308.8026123046875,32,3.0,2.0,156,-0.4039093554019928,0.045863520354032516,0.17421135306358337,0.015707088634371758,-0.01584523171186447,0.005090345628559589,0.9997381567955017
36693.448,-0.013415228575468063,0.025471750646829605,0.5348215699195862,-0.05319942906498909,0.3920270800590515,0.6775292754173279,-200.08209228515625,6.918207168579102,460.2549743652344,32,3.0,2.0,156,-0.4041094183921814,0.044473256915807724,0.17701022326946259,0.0002741127391345799,-0.016443120315670967,0.017243605107069016,0.9997161626815796
36695.36,-0.013697810471057892,0.02468552067875862,0.5458100438117981,-0.28740525245666504,0.3008018732070923,0.6342793107032776,-258.0791931152344,-10.309414863586426,211.25,32,3.0,2.0,156,-0.4041094183921814,0.044473256915807724,0.17701022326946259,0.0002741127391345799,-0.016443120315670967,0.017243605107069016,0.9997161626815796
36697.341,-0.013697810471057892,0.02468552067875862,0.5458100438117981,-0.29009321331977844,0.8585529327392578,0.7475398778915405,-287.8289794921875,-23.99524688720703,-140.86390686035156,32,3.0,2.0,156,-0.4041094183921814,0.044473256915807724,0.17701022326946259,0.0002741127391345799,-0.016443120315670967,0.017243605107069016,0.9997161626815796
36699.369,-0.013697810471057892,0.02468552067875862,0.5458100438117981,-0.15715345740318298,1.4845948219299316,0.9915410280227661,-254.918701171875,-17.202938079833984,-242.25970458984375,32,3.0,2.0,156,-0.4046807587146759,0.04325013607740402,0.18024545907974243,-0.012454244308173656,-0.015406705439090729,0.02304498292505741,0.9995381236076355
36701.312,-0.017265595495700836,0.01939731277525425,0.5365505814552307,-0.008766899816691875,1.808164119720459,1.2648859024047852,-185.39125061035156,5.648715972900391,-106.14644622802734,32,3.0,2.0,156,-0.4046807587146759,0.04325013607740402,0.18024545907974243,-0.012454244308173656,-0.015406705439090729,0.02304498292505741,0.9995381236076355
36703.352,-0.017265595495700836,0.01939731277525425,0.5365505814552307,0.1835283488035202,1.7374093532562256,1.5920789241790771,-117.09541320800781,25.325092315673828,26.298601150512695,32,3.0,2.0,156,-0.4046807587146759,0.04325013607740402,0.18024545907974243,-0.012454244308173656,-0.015406705439090729,0.02304498292505741,0.9995381236076355
36705.263,-0.017265595495700836,0.01939731277525425,0.5365505814552307,0.20337411761283875,1.2763718366622925,2.0217885971069336,-61.735782623291016,16.106828689575195,16.41836929321289,32,3.0,2.0,156,-0.4048176109790802,0.04246990382671356,0.1831549108028412,-0.022753369063138962,-0.016142096370458603,0.013173800893127918,0.999523937702179
36707.245,-0.017604045569896698,0.018467223271727562,0.5488623380661011,-0.06245965510606766,0.7331272959709167,2.5262627601623535,-25.827009201049805,-1.7107703685760498,-108.99137878417969,32,3.0,2.0,156,-0.4048176109790802,0.04246990382671356,0.1831549108028412,-0.022753369063138962,-0.016142096370458603,0.013173800893127918,0.999523937702179
36709.277,-0.0252299215644598,0.021787429228425026,0.6048169136047363,-0.39138466119766235,0.521769642829895,2.5032284259796143,-18.796592712402344,-2.260007381439209,-259.53265380859375,32,3.0,2.0,156,-0.4048176109790802,0.04246990382671356,0.1831549108028412,-0.022753369063138962,-0.016142096370458603,0.013173800893127918,0.999523937702179
36711.206,-0.0252299215644598,0.021787429228425026,0.6048169136047363,-0.42799949645996094,0.809325635433197,1.618240475654602,-24.250112533569336,2.8243629932403564,-300.7945861816406,40,4.0,1.0,151,-0.4055350422859192,0.042654749006032944,0.18646401166915894,-0.023402296006679535,-0.015436447225511074,-0.010129512287676334,0.9995556473731995
36713.269,-0.020161805674433708,0.027155635878443718,0.5469352006912231,-0.15743882954120636,1.3765676021575928,0.4761636257171631,-30.612428665161133,2.5637781620025635,-182.53367614746094,40,4.0,1.0,151,-0.4055350422859192,0.042654749006032944,0.18646401166915894,-0.023402296006679535,-0.015436447225511074,-0.010129512287676334,0.9995556473731995
36715.168,-0.020161805674433708,0.027155635878443718,0.5469352006912231,0.1804693192243576,1.8422471284866333,-0.477333128452301,-32.024757385253906,1.458163857460022,-32.5577507019043,40,4.0,1.0,151,-0.40599873661994934,0.04332965239882469,0.19044837355613708,-0.020427418872714043,-0.019404621794819832,-0.022328784689307213,0.9993536472320557
36717.157,-0.0205901600420475,0.026167290285229683,0.5586327314376831,0.37527069449424744,2.011845827102661,-0.9713420867919922,-31.037710189819336,0.24357454478740692,27.766090393066406,40,4.0,1.0,151,-0.40599873661994934,0.04332965239882469,0.19044837355613708,-0.020427418872714043,-0.019404621794819832,-0.022328784689307213,0.9993536472320557
36719.178,-0.025131061673164368,0.030643438920378685,0.5577126145362854,0.4712669551372528,1.7431782484054565,-0.849413275718689,-28.910606384277344,-12.199724197387695,19.21000099182129,40,4.0,1.0,151,-0.40599873661994934,0.04332965239882469,0.19044837355613708,-0.020427418872714043,-0.019404621794819832,-0.022328784689307213,0.9993536472320557
36721.111,-0.025131061673164368,0.030643438920378685,0.5577126145362854,0.3338320553302765,0.9803346991539001,-0.18785686790943146,-21.955331802368164,-31.89826011657715,49.50577926635742,40,4.0,1.0,151,-0.4062758982181549,0.043541014194488525,0.1932658553123474,-0.026255950331687927,-0.01893881894648075,-0.017738081514835358,0.9993184804916382
36723.163,-0.025639057159423828,0.029651612043380737,0.5708087086677551,-0.12067963182926178,0.06279406696557999,0.8141118288040161,-11.294346809387207,-39.70459747314453,102.34288024902344,40,4.0,1.0,151,-0.4062758982181549,0.043541014194488525,0.1932658553123474,-0.026255950331687927,-0.01893881894648075,-0.017738081514835358,0.9993184804916382
36725.072,-0.025639057159423828,0.029651612043380737,0.5708087086677551,-0.3349769115447998,-0.40852126479148865,1.6317644119262695,-10.805930137634277,-32.5997428894043,66.6747055053711,40,4.0,1.0,151,-0.4062758982181549,0.043541014194488525,0.1932658553123474,-0.026255950331687927,-0.01893881894648075,-0.017738081514835358,0.9993184804916382
36727.059,-0.025639057159423828,0.029651612043380737,0.5708087086677551,0.031740907579660416,-0.3464456796646118,1.929905652999878,-2.800015449523926,-20.462045669555664,-5.774706840515137,40,4.0,1.0,151,-0.4066465497016907,0.044396139681339264,0.1957160383462906,-0.025794265791773796,-0.021378828212618828,-0.010757718235254288,0.9993808269500732
36729.098,-0.02705516293644905,0.030239608138799667,0.5215053558349609,0.43496668338775635,-0.162149116396904,1.9646402597427368,25.34172248840332,-20.101266860961914,46.32480239868164,40,-5.0,10.0,150,-0.4066465497016907,0.044396139681339264,0.1957160383462906,-0.025794265791773796,-0.021378828212618828,-0.010757718235254288,0.9993808269500732
36731.015,-0.04068475216627121,0.03440986946225166,0.4380522668361664,0.5110462307929993,-0.29342442750930786,1.9595515727996826,52.200958251953125,-30.906984329223633,176.57513427734375,41,-5.0,10.0,150,-0.4073547124862671,0.04522760957479477,0.19904935359954834,-0.02113190107047558,-0.023526307195425034,-0.003107008757069707,0.9994950294494629
36733.068,-0.04117763787508011,0.03361193835735321,0.450421541929245,0.16775256395339966,-0.7181370854377747,1.9902137517929077,50.97894287109375,-42.05337905883789,216.3832550048828,41,-5.0,10.0,150,-0.4073547124862671,0.04522760957479477,0.19904935359954834,-0.02113190107047558,-0.023526307195425034,-0.003107008757069707,0.9994950294494629
36734.977,-0.04117763787508011,0.03361193835735321,0.450421541929245,-0.2248479127883911,-1.082243800163269,2.006023406982422,21.4333553314209,-42.3443603515625,112.78193664550781,41,-5.0,10.0,150,-0.4073547124862671,0.04522760957479477,0.19904935359954834,-0.02113190107047558,-0.023526307195425034,-0.003107008757069707,0.9994950294494629
36736.967,-0.04117763787508011,0.03361193835735321,0.450421541929245,-0.42490091919898987,-1.113545536994934,1.9272129535675049,-24.951980590820312,-25.98459243774414,-33.015586853027344,41,-5.0,10.0,150,-0.4073547124862671,0.04522760957479477,0.19904935359954834,-0.02113190107047558,-0.023526307195425034,-0.003107008757069707,0.9994950294494629
36738.991,-0.051051389425992966,0.0429733581840992,0.5585228800773621,-0.3485952913761139,-0.7899971604347229,1.6346688270568848,-61.33866882324219,-15.21113395690918,-135.14779663085938,41,-5.0,10.0,150,-0.4079085886478424,0.04553535580635071,0.2030303180217743,-0.0200161375105381,-0.022299757227301598,0.003647227305918932,0.9995443820953369
36740.919,-0.051051389425992966,0.0429733581840992,0.5585228800773621,-0.027504172176122665,-0.520238995552063,1.2030209302902222,-44.774383544921875,-20.13065528869629,-145.35848999023438,41,-5.0,10.0,150,-0.4079085886478424,0.04553535580635071,0.2030303180217743,-0.0200161375105381,-0.022299757227301598,0.003647227305918932,0.9995443820953369
36742.971,-0.051051389425992966,0.0429733581840992,0.5585228800773621,0.20977793633937836,-0.8920806050300598,0.8475870490074158,13.749197959899902,-24.093523025512695,-16.91530418395996,41,-5.0,10.0,150,-0.4079710841178894,0.04492003098130226,0.20704126358032227,-0.021112434566020966,-0.02351510338485241,0.005157006438821554,0.9994872808456421
36744.883,-0.05161628872156143,0.04216054081916809,0.5725281238555908,0.12229763716459274,-2.007969856262207,0.6895201206207275,73.88123321533203,-21.759201049804688,130.6255645751953,41,-5.0,10.0,150,-0.4079710841178894,0.04492003098130226,0.20704126358032227,-0.021112434566020966,-0.02351510338485241,0.005157006438821554,0.9994872808456421
36746.867,-0.05161628872156143,0.04216054081916809,0.5725281238555908,-0.35215041041374207,-3.2786712646484375,0.6737368106842041,96.31941986083984,-24.80381965637207,113.5749282836914,41,-5.0,10.0,150,-0.4079710841178894,0.04492003098130226,0.20704126358032227,-0.021112434566020966,-0.02351510338485241,0.005157006438821554,0.9994872808456421
36748.899,-0.05714696645736694,0.04758873209357262,0.5897694230079651,-0.7450041770935059,-3.784700870513916,0.5411369204521179,72.6705093383789,-24.273406982421875,-112.10556030273438,41,3.0,7.0,149,-0.409288227558136,0.044519342482089996,0.20967163145542145,-0.021647056564688683,-0.023207569494843483,-0.012093030847609043,0.9994232058525085
36750.826,-0.06229202821850777,0.02357691153883934,0.5279449224472046,-0.6001980900764465,-2.851959466934204,0.3785587251186371,11.934322357177734,-7.776118755340576,-373.5447692871094,47,3.0,7.0,149,-0.409288227558136,0.044519342482089996,0.20967163145542145,-0.021647056564688683,-0.023207569494843483,-0.012093030847609043,0.9994232058525085
36752.897,-0.06229202821850777,0.02357691153883934,0.5279449224472046,-0.10882220417261124,-1.0579513311386108,0.3991605043411255,-47.0601692199707,1.6598471403121948,-451.1344909667969,47,3.0,7.0,149,-0.409288227558136,0.044519342482089996,0.20967163145542145,-0.021647056564688683,-0.023207569494843483,-0.012093030847609043,0.9994232058525085
36754.787,-0.06229202821850777,0.02357691153883934,0.5279449224472046,0.14457692205905914,0.4378935694694519,0.5858213901519775,-65.3293228149414,-14.851899147033691,-247.94700622558594,47,3.0,7.0,149,-0.406610906124115,0.03691279515624046,0.2143818885087967,0.012727665714919567,-0.014706609770655632,-0.01183832436800003,0.9997408390045166
36756.768,-0.06268735229969025,0.02232404239475727,0.5408933758735657,-0.05345434322953224,1.026348352432251,0.8619359731674194,-70.5099105834961,-33.4919319152832,76.52273559570312,47,3.0,7.0,149,-0.406610906124115,0.03691279515624046,0.2143818885087967,0.012727665714919567,-0.014706609770655632,-0.01183832436800003,0.9997408390045166
36758.797,-0.06400460004806519,0.024882905185222626,0.4922349452972412,-0.2606300711631775,0.833265483379364,1.0845648050308228,-99.36471557617188,-26.562074661254883,239.67620849609375,47,3.0,7.0,149,-0.41058406233787537,0.042391303926706314,0.21537131071090698,-0.023512188345193863,-0.02416958101093769,-0.01183832436800003,0.9997408390045166
36760.728,-0.06400460004806519,0.024882905185222626,0.4922349452972412,-0.2746414244174957,0.4037635624408722,1.2361669540405273,-150.8145294189453,-10.030941009521484,196.23593139648438,47,3.0,7.0,149,-0.41058406233787537,0.042391303926706314,0.21537131071090698,-0.023512188345193863,-0.02416958101093769,-0.0080342348664999,0.9993991255760193
36762.78,-0.06464824080467224,0.02439693920314312,0.5064684748649597,-0.2237062156200409,0.027386726811528206,1.291588306427002,-187.0718536376953,-7.300331115722656,71.14713287353516,47,3.0,7.0,149,-0.41058406233787537,0.042391303926706314,0.21537131071090698,-0.023512188345193863,-0.02416958101093769,-0.0080342348664999,0.9993991255760193
36764.691,-0.06464824080467224,0.02439693920314312,0.5064684748649597,-0.07200131565332413,-0.1776471585035324,1.2264362573623657,-173.6737518310547,-11.44478702545166,-40.031639099121094,47,3.0,7.0,149,-0.4115314781665802,0.041417695581912994,0.2193838506937027,-0.03302001953125,-0.026565037667751312,-0.005153965670615435,0.9990883469581604
36766.678,-0.06531062722206116,0.023989437147974968,0.5207388997077942,0.16886387765407562,-0.020659856498241425,1.1446303129196167,-122.20819854736328,-16.822708129882812,-129.5987548828125,47,3.0,7.0,149,-0.4115314781665802,0.041417695581912994,0.2193838506937027,-0.03302001953125,-0.026565037667751312,-0.005153965670615435,0.9990883469581604
36768.705,-0.06960640847682953,0.050840869545936584,0.5406372547149658,0.25587397813796997,0.5647097229957581,1.1455307006835938,-65.80601501464844,-19.357559204101562,-188.2926483154297,47,5.0,-2.0,145,-0.4115314781665802,0.041417695581912994,0.2193838506937027,-0.03302001953125,-0.026565037667751312,-0.005153965670615435,0.9990883469581604
36770.636,-0.06677348166704178,0.04936440661549568,0.4616236686706543,0.15232226252555847,1.2416505813598633,1.170725703239441,-20.83330535888672,-0.8736772537231445,-139.2396697998047,57,5.0,-2.0,145,-0.4122087359428406,0.04055343195796013,0.22241507470607758,-0.037673741579055786,-0.025227738544344902,-0.009279144927859306,0.9989284873008728
36772.684,-0.0674787238240242,0.04836881533265114,0.4748184084892273,0.09211118519306183,1.4860409498214722,1.241031289100647,19.84724998474121,29.65775489807129,-1.354361653327942,57,5.0,-2.0,145,-0.4122087359428406,0.04055343195796013,0.22241507470607758,-0.037673741579055786,-0.025227738544344902,-0.009279144927859306,0.9989284873008728
36774.596,-0.0674787238240242,0.04836881533265114,0.4748184084892273,0.16943643987178802,1.147353172302246,1.3580067157745361,56.13101577758789,42.200294494628906,113.5465087890625,57,5.0,-2.0,145,-0.4122087359428406,0.04055343195796013,0.22241507470607758,-0.037673741579055786,-0.025227738544344902,-0.009279144927859306,0.9989284873008728
36776.575,-0.0674787238240242,0.04836881533265114,0.4748184084892273,0.2226341813802719,0.45267945528030396,1.4461437463760376,71.62481689453125,39.50120162963867,83.53547668457031,57,5.0,-2.0,145,-0.41282737255096436,0.03995461016893387,0.22578692436218262,-0.036370616406202316,-0.027037806808948517,-0.021997572854161263,0.9987303018569946
36778.605,-0.07507292181253433,0.055873557925224304,0.5101758241653442,0.11285680532455444,0.17628289759159088,1.3690941333770752,39.666629791259766,30.4212703704834,-82.99051666259766,57,5.0,-2.0,145,-0.41282737255096436,0.03995461016893387,0.22578692436218262,-0.036370616406202316,-0.027037806808948517,-0.021997572854161263,0.9987303018569946
36780.543,-0.07507292181253433,0.055873557925224304,0.5101758241653442,-0.009822402149438858,1.0820673704147339,1.0565646886825562,-44.267250061035156,5.944961071014404,-233.98731994628906,57,5.0,-2.0,145,-0.4137609004974365,0.04057304188609123,0.22944797575473785,-0.0327918641269207,-0.026798563078045845,-0.026689833030104637,0.998746395111084
36782.593,-0.07591497153043747,0.054854847490787506,0.524881899356842,0.006419382058084011,2.801701307296753,0.5933525562286377,-122.20398712158203,-17.399812698364258,-235.4386749267578,57,5.0,-2.0,145,-0.4137609004974365,0.04057304188609123,0.22944797575473785,-0.0327918641269207,-0.026798563078045845,-0.026689833030104637,0.998746395111084
36784.5,-0.07591497153043747,0.054854847490787506,0.524881899356842,0.11798563599586487,4.017044544219971,0.12708674371242523,-125.52498626708984,-8.760924339294434,-13.649283409118652,57,5.0,-2.0,145,-0.4137609004974365,0.04057304188609123,0.22944797575473785,-0.0327918641269207,-0.026798563078045845,-0.026689833030104637,0.998746395111084
36786.49,-0.07591497153043747,0.054854847490787506,0.524881899356842,0.2174065113067627,3.8787758350372314,-0.10855218023061752,-64.50379180908203,14.938814163208008,324.8622741699219,57,5.0,-2.0,145,-0.4137609004974365,0.04057304188609123,0.22944797575473785,-0.0327918641269207,-0.026798563078045845,-0.026689833030104637,0.998746395111084
36788.509,-0.07913781702518463,0.05934508144855499,0.5010225176811218,0.2873379588127136,2.5984385013580322,-0.011401468887925148,-11.086374282836914,7.130369186401367,497.9981384277344,57,4.0,-17.0,143,-0.4144480228424072,0.04091838747262955,0.23291848599910736,-0.036134231835603714,-0.027727743610739708,-0.012882004491984844,0.9988791942596436
36790.445,-0.06005209684371948,0.051484718918800354,0.4545600116252899,0.2640673518180847,0.9510819911956787,0.3636641204357147,-2.0884647369384766,-20.68935775756836,352.40460205078125,70,4.0,-17.0,143,-0.4144480228424072,0.04091838747262955,0.23291848599910736,-0.036134231835603714,-0.027727743610739708,-0.012882004491984844,0.9988791942596436
36792.512,-0.06005209684371948,0.051484718918800354,0.4545600116252899,0.03492742031812668,-0.3976084589958191,0.7748072743415833,-5.344328880310059,-28.199377059936523,70.79592895507812,70,4.0,-17.0,143,-0.41505366563796997,0.04104161635041237,0.23499298095703125,-0.04697968810796738,-0.027819501236081123,-0.011179965920746326,0.9984458088874817
36794.405,-0.06107913330197334,0.05069439858198166,0.4677814841270447,-0.18881455063819885,-0.9577337503433228,1.1016179323196411,18.179218292236328,-15.589547157287598,-91.84500122070312,70,4.0,-17.0,143,-0.41505366563796997,0.04104161635041237,0.23499298095703125,-0.04697968810796738,-0.027819501236081123,-0.011179965920746326,0.9984458088874817
36796.384,-0.06107913330197334,0.05069439858198166,0.4677814841270447,-0.20122195780277252,-0.6322805285453796,1.2905994653701782,73.0980453491211,-8.807478904724121,-103.68881225585938,70,4.0,-17.0,143,-0.41505366563796997,0.04104161635041237,0.23499298095703125,-0.04697968810796738,-0.027819501236081123,-0.011179965920746326,0.9984458088874817
36798.411,-0.06257302314043045,0.05401039496064186,0.41636672616004944,-0.13708871603012085,0.1510794460773468,1.33089280128479,132.51426696777344,-16.385438919067383,-50.38420867919922,70,4.0,-17.0,143,-0.4156024158000946,0.043008916079998016,0.2384805679321289,-0.032760683447122574,-0.026907285675406456,-0.0019611234311014414,0.9990990161895752
36800.346,-0.06369546800851822,0.053268447518348694,0.4311099350452423,-0.057084329426288605,0.7400010824203491,1.3128132820129395,158.69107055664062,-25.05810546875,-7.457820892333984,70,4.0,-17.0,143,-0.4156024158000946,0.043008916079998016,0.2384805679321289,-0.032760683447122574,-0.026907285675406456,-0.0019611234311014414,0.9990990161895752
36802.41,-0.06369546800851822,0.053268447518348694,0.4311099350452423,0.05687844008207321,0.6929629445075989,1.254345417022705,142.55099487304688,-24.637922286987305,-6.774990081787109,70,4.0,-17.0,143,-0.4156024158000946,0.043008916079998016,0.2384805679321289,-0.032760683447122574,-0.026907285675406456,-0.0019611234311014414,0.9990990161895752
36804.305,-0.06369546800851822,0.053268447518348694,0.4311099350452423,0.053554974496364594,0.015958014875650406,1.1390546560287476,112.61835479736328,-19.07708740234375,-1.8793456554412842,70,4.0,-17.0,143,-0.4161618947982788,0.04448835551738739,0.2418215274810791,-0.029865456745028496,-0.027455342933535576,-0.0013987019192427397,0.9991758465766907
36806.297,-0.06482269614934921,0.052679643034935,0.445788711309433,-0.028922608122229576,-0.7627158164978027,0.9595279097557068,95.11181640625,-13.209803581237793,60.2844352722168,70,4.0,-17.0,143,-0.4161618947982788,0.04448835551738739,0.2418215274810791,-0.029865456745028496,-0.027455342933535576,-0.0013987019192427397,0.9991758465766907
36808.334,-0.07053280621767044,0.06311844289302826,0.46895766258239746,0.02802722528576851,-1.2938940525054932,0.758661150932312,92.06737518310547,-9.48918342590332,121.58683013916016,70,2.0,-2.0,137,-0.417011559009552,0.04524821415543556,0.24486865103244781,-0.027159349992871284,-0.029057851061224937,-0.0012205970706418157,0.9992079734802246
36810.248,-0.07053280621767044,0.06311844289302826,0.46895766258239746,0.09475003927946091,-1.7196059226989746,0.7125375866889954,97.41345977783203,-6.059717178344727,82.65890502929688,79,2.0,-2.0,137,-0.417011559009552,0.04524821415543556,0.24486865103244781,-0.027159349992871284,-0.029057851061224937,-0.0012205970706418157,0.9992079734802246
36812.299,-0.06722362339496613,0.039903607219457626,0.42669278383255005,0.09921379387378693,-1.9864919185638428,1.0263619422912598,94.42449188232422,0.6484082937240601,-14.915383338928223,79,2.0,-2.0,137,-0.417011559009552,0.04524821415543556,0.24486865103244781,-0.027159349992871284,-0.029057851061224937,-0.0012205970706418157,0.9992079734802246
36814.211,-0.06722362339496613,0.039903607219457626,0.42669278383255005,0.06264034658670425,-2.0697131156921387,1.515577793121338,85.33467102050781,4.477141857147217,-34.386417388916016,79,2.0,-2.0,137,-0.4180689752101898,0.045666035264730453,0.2477615624666214,-0.020198818296194077,-0.027770554646849632,-0.002471854677423835,0.999407172203064
36816.202,-0.06834517419338226,0.03981759771704674,0.4399285316467285,-0.13276849687099457,-1.957695722579956,1.8219767808914185,79.00559997558594,2.967802047729492,25.261917114257812,79,2.0,-2.0,137,-0.4180689752101898,0.045666035264730453,0.2477615624666214,-0.020198818296194077,-0.027770554646849632,-0.002471854677423835,0.999407172203064
36818.222,-0.07332321256399155,0.04604388028383255,0.4417668879032135,-0.32683804631233215,-1.4248254299163818,1.5782761573791504,45.108055114746094,6.10595178604126,0.9807366132736206,79,2.0,-2.0,137,-0.4180689752101898,0.045666035264730453,0.2477615624666214,-0.020198818296194077,-0.027770554646849632,-0.002471854677423835,0.999407172203064
36820.153,-0.07332321256399155,0.04604388028383255,0.4417668879032135,-0.1587638407945633,-0.6418532729148865,0.8777847290039062,-5.82402229309082,16.90522003173828,-98.5630874633789,79,2.0,-2.0,137,-0.418863981962204,0.04603760316967964,0.2508741021156311,-0.01686149276793003,-0.02662632241845131,0.0038383060600608587,0.9994959235191345
36822.203,-0.0745542049407959,0.046039942651987076,0.4564799964427948,0.07224099338054657,-0.27313026785850525,0.29154446721076965,-25.645858764648438,16.305776596069336,-43.46822738647461,79,2.0,-2.0,137,-0.418863981962204,0.04603760316967964,0.2508741021156311,-0.01686149276793003,-0.02662632241845131,0.0038383060600608587,0.9994959235191345
36824.125,-0.0745542049407959,0.046039942651987076,0.4564799964427948,0.0047986493445932865,-0.7252838611602783,0.07486075907945633,-11.853297233581543,2.7312355041503906,160.79051208496094,79,2.0,-2.0,137,-0.418863981962204,0.04603760316967964,0.2508741021156311,-0.01686149276793003,-0.02662632241845131,0.0038383060600608587,0.9994959235191345
36826.105,-0.0745542049407959,0.046039942651987076,0.4564799964427948,-0.22422991693019867,-1.344892978668213,0.16105052828788757,-15.062265396118164,-1.7232388257980347,255.50131225585938,79,2.0,-2.0,137,-0.4196907579898834,0.045523203909397125,0.25420135259628296,-0.018757019191980362,-0.02868238277733326,0.007463684305548668,0.9993847608566284
36828.138,-0.07926527410745621,0.0486820824444294,0.4482617974281311,-0.2995189130306244,-1.400078535079956,0.45595434308052063,-47.46455001831055,4.390279293060303,117.98909759521484,79,2.0,-2.0,137,-0.4196907579898834,0.045523203909397125,0.25420135259628296,-0.018757019191980362,-0.02868238277733326,0.007463684305548668,0.9993847608566284
36830.074,-0.0756385400891304,0.06100594624876976,0.450298935174942,-0.2885291874408722,-0.999699056148529,0.9512348175048828,-73.19558715820312,0.915518045425415,-47.72345733642578,79,-2.0,7.0,137,-0.4196907579898834,0.045523203909397125,0.25420135259628296,-0.018757019191980362,-0.02868238277733326,0.007463684305548668,0.9993847608566284
36832.118,-0.07354637235403061,0.05890043079853058,0.40842941403388977,-0.3776378333568573,-0.7764286398887634,1.3656959533691406,-64.18875122070312,-13.938024520874023,-40.26034927368164,92,-2.0,7.0,137,-0.420063853263855,0.04528367146849632,0.2573377788066864,-0.02519144117832184,-0.03014957346022129,0.008801200427114964,0.9991891980171204
36834.025,-0.07354637235403061,0.05890043079853058,0.40842941403388977,-0.36729657649993896,-0.8863857984542847,1.655137538909912,-33.38904571533203,-11.41183853149414,9.423707008361816,92,-2.0,7.0,137,-0.420063853263855,0.04528367146849632,0.2573377788066864,-0.02519144117832184,-0.03014957346022129,0.008801200427114964,0.9991891980171204
36836.006,-0.07354637235403061,0.05890043079853058,0.40842941403388977,-0.17682354152202606,-0.9022627472877502,1.8009480237960815,-19.67646026611328,1.8450006246566772,-63.16118621826172,92,-2.0,7.0,137,-0.42122894525527954,0.04437291994690895,0.2602364718914032,-0.025795603170990944,-0.026431791484355927,0.006918728351593018,0.9992938041687012
36838.045,-0.07979686558246613,0.06173963472247124,0.4311710000038147,-0.0348467156291008,-0.5203176140785217,1.6924140453338623,-35.896156311035156,-0.5589117407798767,-146.4615020751953,92,-2.0,7.0,137,-0.42122894525527954,0.04437291994690895,0.2602364718914032,-0.025795603170990944,-0.026431791484355927,0.006918728351593018,0.9992938041687012
36839.962,-0.07979686558246613,0.06173963472247124,0.4311710000038147,-0.08192962408065796,0.08976984024047852,1.486197590827942,-57.41535186767578,-2.952324151992798,-113.68760681152344,92,-2.0,7.0,137,-0.42122894525527954,0.04437291994690895,0.2602364718914032,-0.025795603170990944,-0.026431791484355927,0.006918728351593018,0.9992938041687012
36842.012,-0.07979686558246613,0.06173963472247124,0.4311710000038147,-0.11137793213129044,0.56474769115448,1.3092517852783203,-51.725372314453125,4.527584552764893,-55.48784637451172,92,-2.0,7.0,137,-0.42253533005714417,0.04351699352264404,0.263203889131546,-0.02579527348279953,-0.028115779161453247,0.0025239912793040276,0.999268651008606
36843.923,-0.08120090514421463,0.061347708106040955,0.4458126723766327,0.00882173515856266,0.7451858520507812,1.2615994215011597,-12.0106782913208,11.90283489227295,-51.04613494873047,92,-2.0,7.0,137,-0.42253533005714417,0.04351699352264404,0.263203889131546,-0.02579527348279953,-0.028115779161453247,0.0025239912793040276,0.999268651008606
36845.904,-0.08120090514421463,0.061347708106040955,0.4458126723766327,0.12285380810499191,0.6573670506477356,1.3345630168914795,36.967472076416016,18.958066940307617,-49.34865188598633,92,-2.0,7.0,137,-0.42253533005714417,0.04351699352264404,0.263203889131546,-0.02579527348279953,-0.028115779161453247,0.0025239912793040276,0.999268651008606
36847.938,-0.08865050971508026,0.06782975047826767,0.4917709529399872,0.1157660260796547,0.3291621506214142,1.375470519065857,69.6195297241211,21.887432098388672,-16.18149185180664,92,-2.0,7.0,137,-0.42365604639053345,0.04274740815162659,0.26669684052467346,-0.02804618515074253,-0.02792711928486824,-0.00884291436523199,0.9991773366928101
36849.87,-0.09018257260322571,0.0673181489109993,0.5078011155128479,0.04313052073121071,-0.03590600565075874,1.2362810373306274,67.23872375488281,12.096735000610352,0.16009746491909027,92,-3.0,4.0,136,-0.42365604639053345,0.04274740815162659,0.26669684052467346,-0.02804618515074253,-0.02792711928486824,-0.00884291436523199,0.9991773366928101
36851.916,-0.0793868899345398,0.0525505505502224,0.46289917826652527,-0.029222136363387108,0.2100103497505188,0.8597066402435303,20.857040405273438,1.7587909698486328,-65.29269409179688,104,-3.0,4.0,136,-0.42365604639053345,0.04274740815162659,0.26669684052467346,-0.02804618515074253,-0.02792711928486824,-0.00884291436523199,0.9991773366928101
36853.827,-0.0793868899345398,0.0525505505502224,0.46289917826652527,0.07351920753717422,1.4089410305023193,0.4981015622615814,-47.40688705444336,12.504685401916504,-188.9975128173828,104,-3.0,4.0,136,-0.4245758056640625,0.04296737536787987,0.2699696123600006,-0.022791890427470207,-0.026904193684458733,-0.012021061964333057,0.9993059039115906
36855.808,-0.08083859831094742,0.052273184061050415,0.4760129749774933,0.3120054006576538,2.9083149433135986,0.3348288834095001,-91.67793273925781,17.458511352539062,-192.48992919921875,104,-3.0,4.0,136,-0.4245758056640625,0.04296737536787987,0.2699696123600006,-0.022791890427470207,-0.026904193684458733,-0.012021061964333057,0.9993059039115906
36857.851,-0.08526149392127991,0.057240184396505356,0.47562456130981445,0.42395997047424316,3.609635829925537,0.4834708273410797,-88.49349212646484,-4.180901050567627,37.44913864135742,104,-3.0,4.0,136,-0.4245758056640625,0.04296737536787987,0.2699696123600006,-0.022791890427470207,-0.026904193684458733,-0.012021061964333057,0.9993059039115906
36859.769,-0.08526149392127991,0.057240184396505356,0.47562456130981445,0.31644710898399353,3.296884536743164,0.9352949857711792,-71.184326171875,-14.344472885131836,309.35638427734375,104,-3.0,4.0,136,-0.42558810114860535,0.04363011196255684,0.27285945415496826,-0.02308562956750393,-0.026497233659029007,-0.006408438086509705,0.9993617534637451
36861.822,-0.08683701604604721,0.0570257231593132,0.4901193082332611,0.02469685487449169,2.5242679119110107,1.3218791484832764,-78.2982406616211,-4.585707187652588,361.45306396484375,104,-3.0,4.0,136,-0.42558810114860535,0.04363011196255684,0.27285945415496826,-0.02308562956750393,-0.026497233659029007,-0.006408438086509705,0.9993617534637451
36863.732,-0.08683701604604721,0.0570257231593132,0.4901193082332611,-0.22739917039871216,1.7033756971359253,1.4269236326217651,-91.23103332519531,-6.065549850463867,192.38302612304688,104,-3.0,4.0,136,-0.4265124201774597,0.0438963882625103,0.2765193581581116,-0.03480769321322441,-0.0281161367893219,-1.9233684724895284e-05,0.9989984631538391
36865.722,-0.08843328058719635,0.05695917084813118,0.5045750141143799,-0.24180036783218384,0.9597606658935547,1.2327632904052734,-69.32684326171875,-19.69316864013672,15.322952270507812,104,-3.0,4.0,136,-0.4265124201774597,0.0438963882625103,0.2765193581581116,-0.03480769321322441,-0.0281161367893219,-1.9233684724895284e-05,0.9989984631538391
36867.75,-0.09168625622987747,0.05982132628560066,0.4979669749736786,-0.044382497668266296,0.4230998158454895,0.8564944863319397,-6.767278671264648,-19.00728416442871,-65.45101165771484,104,-3.0,4.0,136,-0.4265124201774597,0.0438963882625103,0.2765193581581116,-0.03480769321322441,-0.0281161367893219,-1.9233684724895284e-05,0.9989984631538391
36869.68,-0.09168625622987747,0.05982132628560066,0.4979669749736786,0.12193535268306732,0.1708715409040451,0.47453877329826355,67.84811401367188,-9.172389030456543,-86.50274658203125,104,-3.0,4.0,136,-0.42724859714508057,0.04529663175344467,0.279765784740448,-0.03447569161653519,-0.028351593762636185,0.002462775446474552,0.9990002512931824
36871.734,-0.09831347316503525,0.04446716979146004,0.5168960094451904,0.026272518560290337,0.01957028917968273,0.16300822794437408,130.10108947753906,-15.516630172729492,-71.26448822021484,117,-6.0,-7.0,134,-0.42724859714508057,0.04529663175344467,0.279765784740448,-0.03447569161653519,-0.028351593762636185,0.002462775446474552,0.9990002512931824
36873.65,-0.09508366882801056,0.042414356023073196,0.4699278473854065,-0.25136297941207886,-0.35420170426368713,0.11586442589759827,171.30923461914062,-25.46523666381836,-56.69911575317383,117,-6.0,-7.0,134,-0.42724859714508057,0.04529663175344467,0.279765784740448,-0.03447569161653519,-0.028351593762636185,0.002462775446474552,0.9990002512931824
36875.616,-0.09508366882801056,0.042414356023073196,0.4699278473854065,-0.43607401847839355,-0.8066648244857788,0.3467523455619812,183.5580596923828,-10.829286575317383,-115.37411499023438,117,-6.0,-7.0,134,-0.4286743998527527,0.04695610702037811,0.28259238600730896,-0.026685476303100586,-0.028135599568486214,-0.00459109665825963,0.9992372989654541
36877.655,-0.09632263332605362,0.04685654491186142,0.4325445294380188,-0.32230979204177856,-0.8194714784622192,0.582485020160675,167.49612426757812,12.585765838623047,-236.63031005859375,117,-6.0,-7.0,134,-0.4286743998527527,0.04695610702037811,0.28259238600730896,-0.026685476303100586,-0.028135599568486214,-0.00459109665825963,0.9992372989654541
36879.578,-0.09632263332605362,0.04685654491186142,0.4325445294380188,0.017917433753609657,-0.4185522198677063,0.6930853128433228,149.2285919189453,21.668949127197266,-247.25408935546875,117,-6.0,-7.0,134,-0.42976927757263184,0.04840647056698799,0.28531888127326965,-0.015847843140363693,-0.02894887700676918,-0.011968031525611877,0.9993836879730225
36881.636,-0.09793820232152939,0.04724154248833656,0.44685879349708557,0.30076494812965393,-0.30115363001823425,0.8247479796409607,157.3891143798828,17.979442596435547,-49.4885139465332,117,-6.0,-7.0,134,-0.42976927757263184,0.04840647056698799,0.28531888127326965,-0.015847843140363693,-0.02894887700676918,-0.011968031525611877,0.9993836879730225
36883.544,-0.09793820232152939,0.04724154248833656,0.44685879349708557,0.2136850655078888,-0.7278172969818115,1.0320976972579956,176.3113250732422,4.1029582023620605,131.8004150390625,117,-6.0,-7.0,134,-0.42976927757263184,0.04840647056698799,0.28531888127326965,-0.015847843140363693,-0.02894887700676918,-0.011968031525611877,0.9993836879730225
36885.521,-0.09793820232152939,0.04724154248833656,0.44685879349708557,-0.0424727238714695,-1.329519271850586,1.2845550775527954,177.04769897460938,-6.3486199378967285,62.983238220214844,117,-6.0,-7.0,134,-0.42976927757263184,0.04840647056698799,0.28531888127326965,-0.015847843140363693,-0.02894887700676918,-0.011968031525611877,0.9993836879730225
36887.559,-0.10036617517471313,0.05252083018422127,0.42480677366256714,-0.15027040243148804,-1.8042632341384888,1.554553508758545,162.70994567871094,0.4638379216194153,-62.644309997558594,117,-6.0,-7.0,134,-0.4311014711856842,0.04901177063584328,0.28800246119499207,-0.010144914500415325,-0.027837516739964485,-0.013055641204118729,0.9994757771492004
36889.483,-0.10208956897258759,0.05303456634283066,0.44044065475463867,-0.16876395046710968,-2.2256898880004883,1.7215968370437622,145.3455352783203,10.336019515991211,-7.783879280090332,117,-6.0,-7.0,134,-0.4311014711856842,0.04901177063584328,0.28800246119499207,-0.010144914500415325,-0.027837516739964485,-0.013055641204118729,0.9994757771492004
36891.542,-0.10208956897258759,0.05303456634283066,0.44044065475463867,-0.15978969633579254,-2.3709638118743896,1.6500720977783203,113.42140197753906,4.288824081420898,76.39564514160156,117,-6.0,-9.0,131,-0.43204474449157715,0.04995648190379143,0.29136398434638977,-0.0013126122066751122,-0.02661336399614811,-0.012138745747506618,0.9995712637901306
36893.451,-0.10208956897258759,0.05303456634283066,0.44044065475463867,-0.10374210774898529,-1.75328528881073,1.3823410272598267,53.151580810546875,-7.9739298820495605,5.652688026428223,126,-6.0,-9.0,131,-0.43204474449157715,0.04995648190379143,0.29136398434638977,-0.0013126122066751122,-0.02661336399614811,-0.012138745747506618,0.9995712637901306
36895.434,-0.09958252310752869,0.026759319007396698,0.413235068321228,-0.0054634939879179,-0.5231485962867737,1.0496591329574585,-12.347492218017578,-11.793554306030273,-113.5536880493164,126,-6.0,-9.0,131,-0.43204474449157715,0.04995648190379143,0.29136398434638977,-0.0013126122066751122,-0.02661336399614811,-0.012138745747506618,0.9995712637901306
36897.462,-0.10626433789730072,0.028340263292193413,0.462506502866745,0.10670032352209091,0.439130574464798,0.5736026167869568,-45.37895584106445,-14.034110069274902,-75.07112121582031,126,-6.0,-9.0,131,-0.43349555134773254,0.04966932535171509,0.2941569685935974,0.00824708491563797,-0.029427839443087578,-0.003615059657022357,0.99952632188797
36899.387,-0.10799410194158554,0.029151272028684616,0.4767007529735565,0.14180923998355865,0.4386177659034729,0.10585404932498932,-40.14052200317383,-11.707783699035645,121.9307861328125,126,-6.0,-9.0,131,-0.43349555134773254,0.04966932535171509,0.2941569685935974,0.00824708491563797,-0.029427839443087578,-0.003615059657022357,0.99952632188797
36901.45,-0.10799410194158554,0.029151272028684616,0.4767007529735565,0.09993411600589752,-0.4358583986759186,-0.05867301672697067,-26.12841796875,8.565624237060547,270.93170166015625,126,-6.0,-9.0,131,-0.43349555134773254,0.04966932535171509,0.2941569685935974,0.00824708491563797,-0.029427839443087578,-0.003615059657022357,0.99952632188797
36903.348,-0.10799410194158554,0.029151272028684616,0.4767007529735565,0.054238248616456985,-1.406566858291626,0.14000946283340454,-28.847715377807617,26.855831146240234,212.9021453857422,126,-6.0,-9.0,131,-0.43404045701026917,0.04943734407424927,0.2968098819255829,-0.006161747965961695,-0.02823122963309288,0.004757985007017851,0.9995712041854858
36905.33,-0.10969913005828857,0.030022794380784035,0.49075016379356384,-0.08666049689054489,-1.9555375576019287,0.5901762247085571,-38.556861877441406,7.921698093414307,-7.453915119171143,126,-6.0,-9.0,131,-0.43404045701026917,0.04943734407424927,0.2968098819255829,-0.006161747965961695,-0.02823122963309288,0.004757985007017851,0.9995712041854858
