timestamp,stateEstimate.vx,stateEstimate.vy,stateEstimate.vz,acc.x,acc.y,acc.z,gyro.x,gyro.y,gyro.z,range.zrange,motion.deltaX,motion.deltaY,motion.motion,locSrv.x,locSrv.y,locSrv.z,locSrv.qx,locSrv.qy,locSrv.qz,locSrv.qw
31856.587,0.013818920589983463,-0.005909972824156284,-0.01600298285484314,0.032355111092329025,-0.011067196726799011,1.0014197826385498,0.18449406325817108,-0.11880704760551453,-0.168086975812912,21,-1,-1,176,-2.3294248580932617,0.5980644226074219,0.1431373506784439,0.0003856755211018026,0.0012156828306615353,-0.02888353355228901,0.9995819926261902
31858.573,0.013818920589983463,-0.005909972824156284,-0.01600298285484314,0.032423023134469986,-0.011036621406674385,1.0009745359420776,0.1791539192199707,-0.25910651683807373,-0.2298293262720108,21,-1,-1,176,-2.329558849334717,0.5980308055877686,0.14301824569702148,0.0002383256214670837,0.0008022190304473042,-0.028414463624358177,0.9995958805084229
31860.602,0.013818920589983463,-0.005909972824156284,-0.01600298285484314,0.032322149723768234,-0.010759007185697556,1.000428318977356,0.27786967158317566,-0.29650044441223145,-0.12435729056596756,21,-1,-1,176,-2.329558849334717,0.5980308055877686,0.14301824569702148,0.0002383256214670837,0.0008022190304473042,-0.028414463624358177,0.9995958805084229
31862.579,0.013598857447504997,-0.005838325247168541,-0.006608637981116772,0.03213893994688988,-0.010502240620553493,0.9999639987945557,0.27737733721733093,-0.30779415369033813,0.07947435975074768,21,-1,-1,176,-2.329558849334717,0.5980308055877686,0.14301824569702148,0.0002383256214670837,0.0008022190304473042,-0.028414463624358177,0.9995958805084229
31864.518,0.013598857447504997,-0.005838325247168541,-0.006608637981116772,0.03195713832974434,-0.010400606319308281,0.9993318915367126,0.06849141418933868,-0.2942017912864685,0.16587266325950623,21,1,0,176,-2.3295111656188965,0.5980213284492493,0.14312054216861725,0.0004834380524698645,0.0010070007992908359,-0.028810827061533928,0.9995842576026917
31866.498,0.013598857447504997,-0.005838325247168541,-0.006608637981116772,0.03190765157341957,-0.010490437038242817,0.9985125064849854,-0.24991430342197418,-0.14964772760868073,0.22506213188171387,21,1,0,176,-2.3295111656188965,0.5980213284492493,0.14312054216861725,0.0004834380524698645,0.0010070007992908359,-0.028810827061533928,0.9995842576026917
31868.472,0.01222312543541193,-0.006873300299048424,0.013728560879826546,0.03215496614575386,-0.010584195144474506,0.9981740713119507,-0.15518774092197418,0.049160100519657135,0.12451672554016113,21,1,0,176,-2.329376220703125,0.5980634093284607,0.14321115612983704,0.00023777491878718138,0.0012266315752640367,-0.028643088415265083,0.9995889067649841
31870.511,0.01222312543541193,-0.006873300299048424,0.013728560879826546,0.032547060400247574,-0.01068076677620411,0.9982556700706482,0.09341114014387131,0.09482406824827194,-0.14060871303081512,21,1,0,176,-2.329376220703125,0.5980634093284607,0.14321115612983704,0.00023777491878718138,0.0012266315752640367,-0.028643088415265083,0.9995889067649841
31872.467,0.01222312543541193,-0.006873300299048424,0.013728560879826546,0.032777801156044006,-0.010942327789962292,0.9983190298080444,0.07492207735776901,0.0047275833785533905,-0.21208901703357697,21,1,0,176,-2.329434871673584,0.598090410232544,0.14319999516010284,0.000308604707242921,0.0013955689501017332,-0.02864937297999859,0.9995884895324707
31874.422,0.012631131336092949,-0.007012608926743269,0.024534713476896286,0.03274795413017273,-0.011058090254664421,0.9983116984367371,-0.0018861384596675634,-0.1262282282114029,-0.03123367205262184,21,0,0,48,-2.329434871673584,0.598090410232544,0.14319999516010284,0.000308604707242921,0.0013955689501017332,-0.02864937297999859,0.9995884895324707
31876.402,0.012631131336092949,-0.007012608926743269,0.024534713476896286,0.03252450004220009,-0.01071027759462595,0.9983793497085571,-0.02139580063521862,-0.1787601113319397,0.17702719569206238,21,0,0,48,-2.329474449157715,0.5980660319328308,0.1431131362915039,0.00035697140265256166,0.0013301224680617452,-0.028644531965255737,0.9995887279510498
31878.376,0.012430107221007347,-0.006919595412909985,0.034890130162239075,0.03193225339055061,-0.010117633268237114,0.9988115429878235,-0.02094961889088154,-0.10373478382825851,0.18499578535556793,21,0,0,48,-2.329474449157715,0.5980660319328308,0.1431131362915039,0.00035697140265256166,0.0013301224680617452,-0.028644531965255737,0.9995887279510498
31880.404,0.012430107221007347,-0.006919595412909985,0.034890130162239075,0.031020820140838623,-0.009721724316477776,0.9996898174285889,0.056028351187705994,-0.09916145354509354,0.05804632976651192,21,0,0,48,-2.3295416831970215,0.5980508923530579,0.14311832189559937,9.404907177668065e-05,0.0010755627881735563,-0.028146227821707726,0.9996032118797302
31882.37,0.012876555323600769,-0.007081256713718176,0.04469847306609154,0.030481724068522453,-0.009571805596351624,1.0008330345153809,0.10987646877765656,-0.18819938600063324,-0.041758943349123,21,0,0,48,-2.3295416831970215,0.5980508923530579,0.14311832189559937,9.404907177668065e-05,0.0010755627881735563,-0.028146227821707726,0.9996032118797302
31884.329,0.012876555323600769,-0.007081256713718176,0.04469847306609154,0.030614718794822693,-0.009496526792645454,1.0016764402389526,0.033099401742219925,-0.1725512593984604,-0.06318563222885132,21,0,1,176,-2.3293709754943848,0.5980790257453918,0.14323686063289642,0.00025891957920975983,0.001369918929412961,-0.02835974097251892,0.999596893787384
31886.309,0.01076406892389059,-0.006555931176990271,0.05547437071800232,0.03081628307700157,-0.009532228112220764,1.0016512870788574,-0.005499518942087889,-0.08208376169204712,-0.052636630833148956,21,0,1,176,-2.3293709754943848,0.5980790257453918,0.14323686063289642,0.00025891957920975983,0.001369918929412961,-0.02835974097251892,0.999596893787384
31888.29,0.01076406892389059,-0.006555931176990271,0.05547437071800232,0.030633656308054924,-0.009501087479293346,1.0011401176452637,0.04356447234749794,-0.0629064068198204,-0.04461425170302391,21,0,1,176,-2.3294568061828613,0.5980787873268127,0.14309075474739075,0.0003383429138921201,0.001239277422428131,-0.028697572648525238,0.99958735704422
31890.323,0.010594423860311508,-0.006470679771155119,0.06568695604801178,0.030536634847521782,-0.009515180252492428,1.0009071826934814,0.0757172480225563,-0.05752653256058693,-0.05229705199599266,23,0,1,176,-2.3294568061828613,0.5980787873268127,0.14309075474739075,0.0003383429138921201,0.001239277422428131,-0.028697572648525238,0.99958735704422
31892.284,0.012325740419328213,-0.007029343396425247,-0.03844807296991348,0.030926989391446114,-0.009672258049249649,1.000891923904419,0.08777141571044922,0.08694664388895035,-0.01329550426453352,23,0,1,176,-2.32942271232605,0.598069965839386,0.14313583076000214,0.00033391520264558494,0.001391374389640987,-0.02842484414577484,0.9995949864387512
31894.225,0.012124413624405861,-0.006927559617906809,-0.028082119300961494,0.03139660507440567,-0.009972315281629562,1.0005154609680176,0.04730154573917389,0.22730906307697296,0.09969298541545868,23,0,0,48,-2.32942271232605,0.598069965839386,0.14313583076000214,0.00033391520264558494,0.001391374389640987,-0.02842484414577484,0.9995949864387512
31896.213,0.012124413624405861,-0.006927559617906809,-0.028082119300961494,0.03173445910215378,-0.010305460542440414,0.9995248317718506,0.061371222138404846,0.13597621023654938,0.09753577411174774,23,0,0,48,-2.329401969909668,0.5980579257011414,0.1431950032711029,0.00020491417672019452,0.001548051368445158,-0.028462883085012436,0.9995936751365662
31898.185,0.011941186152398586,-0.006832972634583712,-0.01810787245631218,0.03191571310162544,-0.010426482185721397,0.998605489730835,0.10548314452171326,0.001769903814420104,-0.04696991294622421,23,0,0,48,-2.329401969909668,0.5980579257011414,0.1431950032711029,0.00020491417672019452,0.001548051368445158,-0.028462883085012436,0.9995936751365662
31900.214,0.011941186152398586,-0.006832972634583712,-0.01810787245631218,0.031726714223623276,-0.010338439606130123,0.9981356859207153,0.16335269808769226,0.06041283160448074,-0.16069549322128296,23,0,0,48,-2.3294546604156494,0.5980557799339294,0.143197163939476,0.0002509551995899528,0.0009924010373651981,-0.028536977246403694,0.9995922446250916
31902.179,0.012303251773118973,-0.006944569759070873,-0.008504997938871384,0.03143883869051933,-0.01025028619915247,0.9979096055030823,0.2730455696582794,0.21408717334270477,-0.10191333293914795,23,0,0,48,-2.3294546604156494,0.5980557799339294,0.143197163939476,0.0002509551995899528,0.0009924010373651981,-0.028536977246403694,0.9995922446250916
31904.137,0.012303251773118973,-0.006944569759070873,-0.008504997938871384,0.03138786181807518,-0.010180766694247723,0.9978140592575073,0.22585336863994598,0.30590328574180603,0.02013629488646984,23,0,0,48,-2.329468250274658,0.5980725288391113,0.1431289166212082,0.00047720427392050624,0.0011031986214220524,-0.02884717658162117,0.9995831251144409
31906.109,0.012088836170732975,-0.0068398104049265385,0.0021736694034188986,0.031205730512738228,-0.009985529817640781,0.997924268245697,-0.047726958990097046,0.19237391650676727,0.02164868451654911,23,0,0,48,-2.329468250274658,0.5980725288391113,0.1431289166212082,0.00047720427392050624,0.0011031986214220524,-0.02884717658162117,0.9995831251144409
31908.09,0.012088836170732975,-0.0068398104049265385,0.0021736694034188986,0.030826536938548088,-0.009864447638392448,0.9981448650360107,-0.10827868431806564,0.02530699595808983,-0.03707723692059517,23,0,0,48,-2.329371213912964,0.598088264465332,0.14327342808246613,0.00017621213919483125,0.0013046488165855408,-0.028373759239912033,0.9995965361595154
31910.118,0.011902043595910072,-0.006738299038261175,0.01242995634675026,0.030686886981129646,-0.009967408142983913,0.9985048770904541,-0.023046499118208885,-0.06556883454322815,0.04638269171118736,23,0,0,48,-2.329371213912964,0.598088264465332,0.14327342808246613,0.00017621213919483125,0.0013046488165855408,-0.028373759239912033,0.9995965361595154
31912.091,0.012414432130753994,-0.0069325207732617855,0.012287802994251251,0.030891865491867065,-0.010188273154199123,0.9992533922195435,0.08587384223937988,-0.19236749410629272,0.17657209932804108,23,0,0,48,-2.329371213912964,0.598088264465332,0.14327342808246613,0.00017621213919483125,0.0013046488165855408,-0.028373759239912033,0.9995965361595154
31914.041,0.012414432130753994,-0.0069325207732617855,0.012287802994251251,0.03133494779467583,-0.010160314850509167,0.9999434947967529,0.22484241425991058,-0.13037636876106262,0.18599329888820648,23,-1,1,176,-2.329510450363159,0.5980713963508606,0.14309297502040863,0.000349179666955024,0.0010837407317012548,-0.028636042028665543,0.9995892643928528
31916.022,0.01033590454608202,-0.005265594460070133,0.023521818220615387,0.03158145025372505,-0.010084076784551144,1.000119686126709,0.09660258889198303,0.15639188885688782,0.1146148070693016,23,-1,1,176,-2.329510450363159,0.5980713963508606,0.14309297502040863,0.000349179666955024,0.0010837407317012548,-0.028636042028665543,0.9995892643928528
31917.993,0.01033590454608202,-0.005265594460070133,0.023521818220615387,0.03135237097740173,-0.010226120240986347,1.0000475645065308,-0.1597321480512619,0.15972867608070374,0.11370998620986938,23,-1,1,176,-2.329360008239746,0.5980696678161621,0.14320681989192963,0.0001817509764805436,0.001404200098477304,-0.028646888211369514,0.9995886087417603
31920.023,0.010163949802517891,-0.005181549582630396,0.03424825146794319,0.030926566570997238,-0.01058980543166399,0.9999313354492188,-0.18199695646762848,-0.1133032813668251,0.15437722206115723,23,-1,1,176,-2.329465627670288,0.598076581954956,0.14318719506263733,0.0004003962385468185,0.0011907744919881225,-0.028909051790833473,0.9995813369750977
31921.987,0.010491256602108479,-0.0053032333962619305,0.04452860727906227,0.03053259290754795,-0.011299574747681618,0.9996678829193115,-0.03469156101346016,-0.17282438278198242,0.09471255540847778,23,-1,1,176,-2.329465627670288,0.598076581954956,0.14318719506263733,0.0004003962385468185,0.0011907744919881225,-0.028909051790833473,0.9995813369750977
31923.946,0.010491256602108479,-0.0053032333962619305,0.04452860727906227,0.03023592382669449,-0.011997372843325138,0.9993211030960083,0.15925301611423492,-0.09594382345676422,0.061537228524684906,23,0,0,48,-2.329465627670288,0.598076581954956,0.14318719506263733,0.0004003962385468185,0.0011907744919881225,-0.028909051790833473,0.9995813369750977
31925.916,0.010491256602108479,-0.0053032333962619305,0.04452860727906227,0.03010946325957775,-0.012360812164843082,0.9991537928581238,0.1509554386138916,-0.15977288782596588,0.13023146986961365,23,0,0,48,-2.329378604888916,0.5980730056762695,0.14314250648021698,0.0003301188990008086,0.0014901893446221948,-0.02866198495030403,0.9995880126953125
31927.908,0.010305330157279968,-0.005213408265262842,0.05560431629419327,0.030286099761724472,-0.012607636861503124,0.9994076490402222,0.13595536351203918,-0.20172810554504395,0.08747527003288269,23,0,0,48,-2.329378604888916,0.5980730056762695,0.14314250648021698,0.0003301188990008086,0.0014901893446221948,-0.02866198495030403,0.9995880126953125
31929.926,0.010305330157279968,-0.005213408265262842,0.05560431629419327,0.030805526301264763,-0.012639823369681835,0.9997672438621521,0.2359304279088974,-0.0987686812877655,0.02045862004160881,23,0,0,48,-2.3295419216156006,0.598068356513977,0.14310814440250397,0.00027392091578803957,0.001086333068087697,-0.028587112203240395,0.9995907545089722
31931.925,0.010528725571930408,-0.005517931189388037,0.06613501906394958,0.031349655240774155,-0.0122804781422019,0.9999977350234985,0.2995579242706299,0.05101790651679039,-0.08732283860445023,23,0,0,48,-2.3295419216156006,0.598068356513977,0.14310814440250397,0.00027392091578803957,0.001086333068087697,-0.028587112203240395,0.9995907545089722
31933.84,0.010528725571930408,-0.005517931189388037,0.06613501906394958,0.03168859705328941,-0.01173002365976572,0.9999785423278809,0.25443974137306213,0.14873823523521423,-0.04069874435663223,21,0,-1,176,-2.329366445541382,0.598074734210968,0.14323750138282776,0.000311957934172824,0.0012570245889946818,-0.02871851995587349,0.9995867013931274
31935.827,0.012412184849381447,-0.005746431183069944,-0.04539325460791588,0.03176504373550415,-0.011164717376232147,0.9998143911361694,0.10326609760522842,0.11683391034603119,0.06276214122772217,21,0,-1,176,-2.329366445541382,0.598074734210968,0.14323750138282776,0.000311957934172824,0.0012570245889946818,-0.02871851995587349,0.9995867013931274
31937.801,0.012412184849381447,-0.005746431183069944,-0.04539325460791588,0.03185113146901131,-0.010584797710180283,0.9996514320373535,-0.035058047622442245,0.14412517845630646,0.03859344497323036,21,0,-1,176,-2.3295774459838867,0.5980392694473267,0.14308284223079681,0.00047106455895118415,0.000791527854744345,-0.02900254726409912,0.9995789527893066
31939.832,0.012202448211610317,-0.005668312776833773,-0.035624001175165176,0.03200612589716911,-0.010276984423398972,0.9996127486228943,-0.13090664148330688,0.24389618635177612,0.10171213746070862,21,0,-1,176,-2.3295774459838867,0.5980392694473267,0.14308284223079681,0.00047106455895118415,0.000791527854744345,-0.02900254726409912,0.9995789527893066
31941.795,0.012202448211610317,-0.005668312776833773,-0.035624001175165176,0.032043516635894775,-0.010239728726446629,0.9998594522476196,-0.05779043212532997,0.1419668197631836,0.1110047847032547,21,0,-1,176,-2.329446315765381,0.5980504155158997,0.1431790590286255,0.00025119667407125235,0.0011585030006244779,-0.028678759932518005,0.9995880126953125
31943.745,0.011871261522173882,-0.006670058239251375,-0.02467864751815796,0.031712137162685394,-0.010344155132770538,1.0002117156982422,0.17553631961345673,0.00439930334687233,-0.08291062712669373,21,1,0,176,-2.329446315765381,0.5980504155158997,0.1431790590286255,0.00025119667407125235,0.0011585030006244779,-0.028678759932518005,0.9995880126953125
31945.725,0.011871261522173882,-0.006670058239251375,-0.02467864751815796,0.030908949673175812,-0.010555407032370567,1.0005053281784058,0.33802637457847595,0.019941439852118492,-0.26177462935447693,21,1,0,176,-2.329420328140259,0.5980347394943237,0.14317893981933594,0.0003691014717333019,0.0010889469413086772,-0.02859961986541748,0.999590277671814
31947.707,0.011675417423248291,-0.0065784752368927,-0.01420935895293951,0.030055701732635498,-0.010864363051950932,1.0004271268844604,0.3237234950065613,0.16392405331134796,-0.23383678495883942,21,1,0,176,-2.329420328140259,0.5980347394943237,0.14317893981933594,0.0003691014717333019,0.0010889469413086772,-0.02859961986541748,0.999590277671814
31949.738,0.011675417423248291,-0.0065784752368927,-0.01420935895293951,0.02977689914405346,-0.01101761031895876,1.000036597251892,0.19573940336704254,0.3136926591396332,-0.07859403640031815,21,1,0,176,-2.329354763031006,0.5980425477027893,0.14323697984218597,0.0003981076879426837,0.0012712061870843172,-0.02870284765958786,0.9995871782302856
31951.705,0.01201959140598774,-0.006765569094568491,-0.004074143711477518,0.029839543625712395,-0.01090109534561634,0.9998695254325867,0.025358906015753746,0.2927437126636505,0.04088449850678444,21,1,0,176,-2.329354763031006,0.5980425477027893,0.14323697984218597,0.0003981076879426837,0.0012712061870843172,-0.02870284765958786,0.9995871782302856
31953.663,0.01032576896250248,-0.006369815673679113,-0.004069012124091387,0.02996882237493992,-0.010781082324683666,0.9999157190322876,-0.015866655856370926,0.10136279463768005,0.08749721199274063,21,0,1,176,-2.3293168544769287,0.598059892654419,0.14325609803199768,0.00022210206952877343,0.0012663420056924224,-0.0284460186958313,0.9995945692062378
31955.631,0.010142786428332329,-0.0062727597542107105,0.007191765587776899,0.030119089409708977,-0.010684394277632236,0.9998034834861755,0.06330379843711853,-0.07693322747945786,0.1874690055847168,21,0,1,176,-2.3293168544769287,0.598059892654419,0.14325609803199768,0.00022210206952877343,0.0012663420056924224,-0.0284460186958313,0.9995945692062378
31957.612,0.010142786428332329,-0.0062727597542107105,0.007191765587776899,0.029875287786126137,-0.010577624663710594,0.9995700120925903,0.12825614213943481,-0.10298090428113937,0.2086692899465561,21,0,1,176,-2.3293676376342773,0.5980616211891174,0.1431843340396881,0.00021797642693854868,0.0015740996459499002,-0.028639668598771095,0.9995885491371155
31959.641,0.009971278719604015,-0.006182246841490269,0.017945971339941025,0.029234973713755608,-0.010564434342086315,0.9994366765022278,0.14394453167915344,-0.041118964552879333,0.02660517580807209,21,0,1,176,-2.3293676376342773,0.5980616211891174,0.1431843340396881,0.00021797642693854868,0.0015740996459499002,-0.028639668598771095,0.9995885491371155
31961.614,0.009971278719604015,-0.006182246841490269,0.017945971339941025,0.028598297387361526,-0.010601929388940334,0.9994829297065735,0.19823113083839417,0.10563349723815918,-0.08369927108287811,21,0,1,176,-2.3294918537139893,0.598074197769165,0.14316809177398682,0.00031915950239636004,0.0010337993735447526,-0.02878502942621708,0.9995850920677185
31963.553,0.009971278719604015,-0.006182246841490269,0.017945971339941025,0.028401469811797142,-0.01072736456990242,0.9996851086616516,0.08280187100172043,0.2730254530906677,0.11651049554347992,21,0,-1,176,-2.3294918537139893,0.598074197769165,0.14316809177398682,0.00031915950239636004,0.0010337993735447526,-0.02878502942621708,0.9995850920677185
31965.535,0.010633501224219799,-0.006064312998205423,0.029673000797629356,0.02890023961663246,-0.010910490527749062,1.0001710653305054,-0.04352987930178642,0.34698349237442017,0.25879573822021484,21,0,-1,176,-2.329378128051758,0.5980561375617981,0.14322291314601898,0.00028746770112775266,0.0015535814454779029,-0.028635278344154358,0.999588668346405
31967.522,0.010447490029036999,-0.005975229199975729,0.040828071534633636,0.029663918539881706,-0.010994677431881428,1.0009831190109253,-0.10477716475725174,0.21666276454925537,0.16466543078422546,21,0,-1,176,-2.329378128051758,0.5980561375617981,0.14322291314601898,0.00028746770112775266,0.0015535814454779029,-0.028635278344154358,0.999588668346405
31969.555,0.010447490029036999,-0.005975229199975729,0.040828071534633636,0.03001963347196579,-0.010855640284717083,1.0018230676651,0.011111920699477196,0.043386369943618774,-0.017881935462355614,21,0,-1,176,-2.3295960426330566,0.5980563759803772,0.1430908441543579,0.00029646969051100314,0.0007350944215431809,-0.02878497540950775,0.9995853304862976
31971.519,0.01054896879941225,-0.006155322305858135,0.051541224122047424,0.029991140589118004,-0.010662617161870003,1.0021270513534546,0.2554744780063629,0.14133478701114655,-0.16319501399993896,21,0,-1,176,-2.3295960426330566,0.5980563759803772,0.1430908441543579,0.00029646969051100314,0.0007350944215431809,-0.02878497540950775,0.9995853304862976
31973.464,0.01054896879941225,-0.006155322305858135,0.051541224122047424,0.02987307496368885,-0.010381805710494518,1.001828670501709,0.22216905653476715,0.27040350437164307,-0.10621609538793564,21,0,0,48,-2.3295960426330566,0.5980563759803772,0.1430908441543579,0.00029646969051100314,0.0007350944215431809,-0.02878497540950775,0.9995853304862976
31975.443,0.01054896879941225,-0.006155322305858135,0.051541224122047424,0.029951581731438637,-0.010037379339337349,1.001348853111267,0.018562553450465202,0.13797199726104736,-0.043319035321474075,21,0,0,48,-2.3293778896331787,0.5980384945869446,0.1432044506072998,0.0002447664737701416,0.001352029968984425,-0.028334014117717743,0.9995975494384766
31977.429,0.010350220836699009,-0.006060452200472355,0.06298795342445374,0.030278809368610382,-0.010043435730040073,1.0008947849273682,0.02028299681842327,0.0010208875173702836,-0.11401399224996567,21,0,0,48,-2.3293778896331787,0.5980384945869446,0.1432044506072998,0.0002447664737701416,0.001352029968984425,-0.028334014117717743,0.9995975494384766
31979.448,0.010350220836699009,-0.006060452200472355,0.06298795342445374,0.03039189986884594,-0.010452134534716606,1.0005747079849243,0.06169716268777847,0.004944487940520048,-0.03982098773121834,21,0,0,48,-2.3294761180877686,0.59807288646698,0.14315998554229736,0.00030757373315282166,0.0010688259499147534,-0.02867729403078556,0.9995881915092468
31981.414,0.011744202114641666,-0.006479746662080288,-0.044883109629154205,0.03023824468255043,-0.010746410116553307,1.0002729892730713,-0.06032546982169151,-0.01141443382948637,0.203814297914505,21,0,0,48,-2.3294761180877686,0.59807288646698,0.14315998554229736,0.00030757373315282166,0.0010688259499147534,-0.02867729403078556,0.9995881915092468
31983.362,0.012138011865317822,-0.0066961017437279224,-0.04471058025956154,0.030131453648209572,-0.010709683410823345,1.0000042915344238,-0.09556267410516739,-0.08072489500045776,0.2698073983192444,21,0,0,48,-2.329270362854004,0.5980840921401978,0.14327344298362732,0.00013003306230530143,0.0015039986465126276,-0.028073981404304504,0.9996047616004944
31985.354,0.011928744614124298,-0.00658426946029067,-0.03359781950712204,0.03016466088593006,-0.01060948334634304,0.9998750686645508,-0.07049065083265305,-0.00032044327235780656,0.12707293033599854,21,0,0,48,-2.329270362854004,0.5980840921401978,0.14327344298362732,0.00013003306230530143,0.0015039986465126276,-0.028073981404304504,0.9996047616004944
31987.323,0.011928744614124298,-0.00658426946029067,-0.03359781950712204,0.03043612651526928,-0.010434268042445183,0.9998971819877625,-0.042869679629802704,0.16829338669776917,0.07012946903705597,21,0,0,48,-2.329270124435425,0.5980777144432068,0.14327135682106018,-4.4731194066116586e-05,0.0014634354738518596,-0.028082283213734627,0.9996045231819153
31989.354,0.01173488050699234,-0.006479279138147831,-0.02292848937213421,0.030701128765940666,-0.010236500762403011,1.0003010034561157,0.008570154197514057,0.3474956750869751,0.14210322499275208,21,0,0,48,-2.329270124435425,0.5980777144432068,0.14327135682106018,-4.4731194066116586e-05,0.0014634354738518596,-0.028082283213734627,0.9996045231819153
31991.321,0.01173488050699234,-0.006479279138147831,-0.02292848937213421,0.030907103791832924,-0.010304342024028301,1.0009193420410156,0.11557860672473907,0.36149778962135315,0.11345186829566956,21,0,0,48,-2.3295211791992188,0.5980662107467651,0.1431019902229309,0.00030840656836517155,0.0008891740581020713,-0.028740234673023224,0.9995864629745483
31993.267,0.011555840261280537,-0.0052219354547560215,-0.012607250362634659,0.031012453138828278,-0.010439744219183922,1.0013445615768433,0.03276766091585159,0.1965896636247635,0.09615770727396011,21,-1,0,176,-2.3295211791992188,0.5980662107467651,0.1431019902229309,0.00030840656836517155,0.0008891740581020713,-0.028740234673023224,0.9995864629745483
31995.257,0.011555840261280537,-0.0052219354547560215,-0.012607250362634659,0.03092542663216591,-0.010363390669226646,1.0014859437942505,-0.12349353730678558,0.028417756780982018,0.14621928334236145,21,-1,0,176,-2.3293113708496094,0.5980523824691772,0.14331603050231934,0.0002697395393624902,0.001596905873157084,-0.028694074600934982,0.9995869994163513
31997.229,0.01133977435529232,-0.005129830911755562,-0.0009055128903128207,0.03095770627260208,-0.010167769156396389,1.0014904737472534,-0.26703962683677673,-0.14842869341373444,0.10260622203350067,21,-1,0,176,-2.3293113708496094,0.5980523824691772,0.14331603050231934,0.0002697395393624902,0.001596905873157084,-0.028694074600934982,0.9995869994163513
31999.258,0.01133977435529232,-0.005129830911755562,-0.0009055128903128207,0.031154988333582878,-0.009963245131075382,1.0014369487762451,-0.182296022772789,-0.1023600697517395,-0.02383957989513874,21,-1,0,176,-2.3294129371643066,0.5980563759803772,0.14320681989192963,9.980281174648553e-05,0.0013497397303581238,-0.028377722948789597,0.999596357345581
32001.258,0.011128147132694721,-0.005042696371674538,0.010263662785291672,0.031210122630000114,-0.009715262800455093,1.0013070106506348,0.05357787758111954,0.10003559291362762,-0.04761417955160141,21,-1,0,176,-2.3294129371643066,0.5980563759803772,0.14320681989192963,9.980281174648553e-05,0.0013497397303581238,-0.028377722948789597,0.999596357345581
32003.17,0.011128147132694721,-0.005042696371674538,0.010263662785291672,0.031322963535785675,-0.009525228291749954,1.0014060735702515,0.2096562534570694,0.06289345026016235,0.06986645609140396,21,0,0,48,-2.3293235301971436,0.5980468988418579,0.14324353635311127,0.00012966648500878364,0.0015128105878829956,-0.028078541159629822,0.9996046423912048
32005.15,0.01138974353671074,-0.005132144317030907,0.022677453234791756,0.03151918947696686,-0.00930123869329691,1.001750111579895,0.1166280135512352,-0.01641806587576866,0.18182343244552612,21,0,0,48,-2.3293235301971436,0.5980468988418579,0.14324353635311127,0.00012966648500878364,0.0015128105878829956,-0.028078541159629822,0.9996046423912048
32007.132,0.01138974353671074,-0.005132144317030907,0.022677453234791756,0.031735505908727646,-0.009146450087428093,1.0018630027770996,0.011810995638370514,0.14496712386608124,0.1688791662454605,21,0,0,48,-2.3292644023895264,0.5980299711227417,0.14329169690608978,0.00016198719094973058,0.001514068921096623,-0.02820916287600994,0.9996009469032288
32009.161,0.01118122972548008,-0.005041787866503,0.03431905433535576,0.03197392448782921,-0.009099049493670464,1.0015071630477905,-0.057412128895521164,0.2068680077791214,0.1320284605026245,21,0,0,48,-2.3292644023895264,0.5980299711227417,0.14329169690608978,0.00016198719094973058,0.001514068921096623,-0.02820916287600994,0.9996009469032288
32011.172,0.01118122972548008,-0.005041787866503,0.03431905433535576,0.031761668622493744,-0.00909020472317934,1.0009455680847168,-0.0761895403265953,0.0381796769797802,0.09538986533880234,21,0,0,48,-2.32934832572937,0.5980682969093323,0.14322595298290253,0.0002604280598461628,0.0014897194923833013,-0.028313342481851578,0.9995980262756348
32013.073,0.01118122972548008,-0.005041787866503,0.03431905433535576,0.03113851323723793,-0.009288299828767776,1.000408411026001,-0.008897341787815094,-0.05932003632187843,0.03350796550512314,21,0,0,48,-2.32934832572937,0.5980682969093323,0.14322595298290253,0.0002604280598461628,0.0014897194923833013,-0.028313342481851578,0.9995980262756348
32015.065,0.007960792630910873,-0.003929348196834326,0.04534958675503731,0.03123435564339161,-0.009851044043898582,1.0000815391540527,0.060738448053598404,0.1708526313304901,-0.12196045368909836,21,0,0,48,-2.32934832572937,0.5980682969093323,0.14322595298290253,0.0002604280598461628,0.0014897194923833013,-0.028313342481851578,0.9995980262756348
32017.036,0.007739633787423372,-0.0038278107531368732,0.05730210617184639,0.032340195029973984,-0.01033115480095148,0.999880313873291,0.08786521852016449,0.5269265174865723,-0.5669700503349304,21,0,0,48,-2.3292620182037354,0.5980826616287231,0.14329849183559418,0.00023315810540225357,0.0016807825304567814,-0.02841939590871334,0.9995946884155273
32019.065,0.007739633787423372,-0.0038278107531368732,0.05730210617184639,0.03452778235077858,-0.01146672572940588,0.9998255968093872,0.16637369990348816,0.7496159076690674,-1.5876866579055786,21,0,0,48,-2.3293139934539795,0.5980616807937622,0.14325034618377686,0.0001953392056748271,0.0014053828781470656,-0.028473321348428726,0.9995936155319214
32021.087,0.0075294398702681065,-0.0037359893321990967,0.06863328069448471,0.03959887474775314,-0.013520283624529839,0.9998120069503784,0.2895706593990326,0.8292341828346252,-3.4019947052001953,21,0,0,48,-2.3293139934539795,0.5980616807937622,0.14325034618377686,0.0001953392056748271,0.0014053828781470656,-0.028473321348428726,0.9995936155319214
32022.986,0.004627584479749203,-0.0027319160290062428,0.06837479025125504,0.04728337749838829,-0.015809345990419388,0.9994005560874939,0.11780655384063721,1.0782501697540283,-5.5927629470825195,21,0,0,48,-2.3293139934539795,0.5980616807937622,0.14325034618377686,0.0001953392056748271,0.0014053828781470656,-0.028473321348428726,0.9995936155319214
32024.959,0.004627584479749203,-0.0027319160290062428,0.06837479025125504,0.05557822436094284,-0.01784009486436844,0.998907208442688,-0.06858308613300323,1.385868787765503,-7.129448890686035,22,0,0,48,-2.329482078552246,0.5980592966079712,0.14314314723014832,0.000354509538738057,0.0010765978367999196,-0.02861074171960354,0.9995900392532349
32026.941,0.006343667861074209,-0.0032883489038795233,-0.04928865283727646,0.060761675238609314,-0.016975892707705498,0.9982212781906128,-0.09079961478710175,1.5497677326202393,-6.547523021697998,22,0,0,48,-2.329482078552246,0.5980592966079712,0.14314314723014832,0.000354509538738057,0.0010765978367999196,-0.02861074171960354,0.9995900392532349
32028.97,0.006120719015598297,-0.0031924459617584944,-0.038924600929021835,0.058296144008636475,-0.015108991414308548,0.9973018765449524,-0.09769494831562042,1.6439249515533447,-4.119828701019287,22,0,0,48,-2.329353094100952,0.5980581641197205,0.14327305555343628,0.00013668753672391176,0.001478142337873578,-0.028274405747652054,0.9995991587638855
32030.972,0.006120719015598297,-0.0031924459617584944,-0.038924600929021835,0.04917289689183235,-0.016188902780413628,0.9962408542633057,-0.2851128876209259,1.703147530555725,-3.637904167175293,22,0,0,48,-2.329353094100952,0.5980581641197205,0.14327305555343628,0.00013668753672391176,0.001478142337873578,-0.028274405747652054,0.9995991587638855
32032.883,0.006120719015598297,-0.0031924459617584944,-0.038924600929021835,0.04167833924293518,-0.01913624070584774,0.9953471422195435,-0.5520002245903015,1.8448628187179565,-7.32173490524292,22,0,1,176,-2.3293116092681885,0.5980573892593384,0.14321205019950867,6.98942894814536e-05,0.001587204053066671,-0.02807769551873207,0.9996045231819153
32034.872,0.0019691952038556337,-0.0017992162611335516,-0.0291622132062912,0.04247158765792847,-0.01851450279355049,0.9944396018981934,-0.5399223566055298,2.3095483779907227,-10.17774486541748,22,0,1,176,-2.3293116092681885,0.5980573892593384,0.14321205019950867,6.98942894814536e-05,0.001587204053066671,-0.02807769551873207,0.9996045231819153
32036.853,0.0019691952038556337,-0.0017992162611335516,-0.0291622132062912,0.04882153868675232,-0.013711010105907917,0.9930890202522278,-0.2501765489578247,2.9747164249420166,-5.667974948883057,22,0,1,176,-2.329845905303955,0.5982206463813782,0.14278173446655273,0.0007120786467567086,0.0013619856908917427,-0.029222117736935616,0.9995718598365784
32038.874,0.0016885908553376794,-0.0016886212397366762,-0.017947999760508537,0.0551133006811142,-0.00863950327038765,0.9919129610061646,0.19642247259616852,3.3540899753570557,4.602162837982178,22,0,1,176,-2.329845905303955,0.5982206463813782,0.14278173446655273,0.0007120786467567086,0.0013619856908917427,-0.029222117736935616,0.9995718598365784
32040.883,0.0016885908553376794,-0.0016886212397366762,-0.017947999760508537,0.057382844388484955,-0.004777320194989443,0.991457462310791,0.6265619993209839,3.1754720211029053,13.11857795715332,22,0,1,176,-2.329777240753174,0.5981930494308472,0.14288337528705597,0.00028514518635347486,0.0011306420201435685,-0.02857402339577675,0.999591052532196
32042.788,0.0014325120719149709,-0.001585457124747336,-0.007190966513007879,0.05333379656076431,-0.0008415941847488284,0.9919166564941406,1.0252169370651245,2.4502763748168945,16.130273818969727,22,0,0,48,-2.329777240753174,0.5981930494308472,0.14288337528705597,0.00028514518635347486,0.0011306420201435685,-0.02857402339577675,0.999591052532196
32044.767,-0.001134137506596744,-0.0006456801784224808,-0.007912201806902885,0.043259527534246445,0.0028139734640717506,0.993307888507843,1.3125483989715576,2.0159318447113037,15.687202453613281,22,0,0,48,-2.3297035694122314,0.5981853008270264,0.142952561378479,0.0003258697979617864,0.00146305444650352,-0.028453486040234566,0.9995940327644348
32046.749,-0.001405052375048399,-0.0005336981266736984,0.003944118972867727,0.029620766639709473,0.003979381639510393,0.9953312873840332,1.1415220499038696,2.0193324089050293,14.092607498168945,22,0,0,48,-2.3297035694122314,0.5981853008270264,0.142952561378479,0.0003258697979617864,0.00146305444650352,-0.028453486040234566,0.9995940327644348
32048.778,-0.001405052375048399,-0.0005336981266736984,0.003944118972867727,0.015662768855690956,0.002235834486782551,0.997549295425415,0.8402228951454163,2.130100965499878,11.762307167053223,22,0,0,48,-2.3293588161468506,0.5980907082557678,0.1431998610496521,0.00020230536756571382,0.0017236574785783887,-0.028420010581612587,0.9995945692062378
32050.794,-0.0016210702015087008,-0.0004388923989608884,0.01529258955270052,0.004816543776541948,-0.0007469006814062595,0.9995601773262024,0.5679187178611755,2.163930654525757,8.561293601989746,22,0,0,48,-2.3293588161468506,0.5980907082557678,0.1431998610496521,0.00020230536756571382,0.0017236574785783887,-0.028420010581612587,0.9995945692062378
32052.691,-0.0016210702015087008,-0.0004388923989608884,0.01529258955270052,-0.0018280136864632368,-0.00363561837002635,1.0009710788726807,0.3198288381099701,1.9686475992202759,4.758663177490234,22,1,-1,176,-2.3292717933654785,0.5980476140975952,0.14328491687774658,-0.00010765628394437954,0.0010188743472099304,-0.027851272374391556,0.9996115565299988
32054.673,-0.00293144048191607,-0.0006626381655223668,0.025722792372107506,-0.005883581005036831,-0.007362170610576868,1.001813530921936,0.09192461520433426,1.3981380462646484,0.9922096133232117,22,1,-1,176,-2.3292717933654785,0.5980476140975952,0.14328491687774658,-0.00010765628394437954,0.0010188743472099304,-0.027851272374391556,0.9996115565299988
32056.653,-0.00293144048191607,-0.0006626381655223668,0.025722792372107506,-0.008650070056319237,-0.012585993856191635,1.002590298652649,-0.12111251056194305,0.7849260568618774,-2.272275686264038,22,1,-1,176,-2.3296642303466797,0.5981711745262146,0.14295312762260437,0.00032780427136458457,0.0015436166431754827,-0.028214028105139732,0.9996006488800049
32058.685,-0.0031992653384804726,-0.0005439074011519551,0.03746524825692177,-0.01000595185905695,-0.017495499923825264,1.0038890838623047,-0.2846536934375763,0.39631205797195435,-4.702624320983887,22,1,-1,176,-2.3296642303466797,0.5981711745262146,0.14295312762260437,0.00032780427136458457,0.0015436166431754827,-0.028214028105139732,0.9996006488800049
32060.697,-0.0031992653384804726,-0.0005439074011519551,0.03746524825692177,-0.009166649542748928,-0.0203342754393816,1.0058081150054932,-0.4438580274581909,0.1619403064250946,-6.174582004547119,22,1,-1,176,-2.3296761512756348,0.5982425808906555,0.1429421603679657,0.000360561884008348,0.0013511697761714458,-0.028642654418945312,0.9995887875556946
32062.596,-0.003449615091085434,-0.0004264873859938234,0.04862933233380318,-0.006360395811498165,-0.02125304564833641,1.0081040859222412,-0.4817838966846466,0.12423023581504822,-6.5549540519714355,22,0,0,48,-2.3296761512756348,0.5982425808906555,0.1429421603679657,0.000360561884008348,0.0013511697761714458,-0.028642654418945312,0.9995887875556946
32064.577,-0.005732361692935228,0.00046749244211241603,0.0488082580268383,-0.0019235765794292092,-0.021823834627866745,1.0103180408477783,-0.3914198875427246,0.03690268099308014,-6.007719039916992,22,0,0,48,-2.3296263217926025,0.598179817199707,0.1430170238018036,5.4409014410339296e-05,0.0015466869808733463,-0.027665670961141586,0.9996160864830017
32066.564,-0.005989245604723692,0.0005872422480024397,0.060807351022958755,0.004217532929033041,-0.02137422375380993,1.0115718841552734,-0.35628998279571533,-0.40134504437446594,-4.629757881164551,22,0,0,48,-2.3296263217926025,0.598179817199707,0.1430170238018036,5.4409014410339296e-05,0.0015466869808733463,-0.027665670961141586,0.9996160864830017
32068.599,-0.005989245604723692,0.0005872422480024397,0.060807351022958755,0.009448952041566372,-0.018041811883449554,1.0114063024520874,-0.4186105728149414,-0.9175565838813782,-2.387796401977539,22,0,0,48,-2.3296189308166504,0.5981693863868713,0.14297613501548767,0.0003592978173401207,0.0014294248539954424,-0.028337039053440094,0.9995973706245422
32070.602,-0.0041522011160850525,3.451442171353847e-05,-0.04622297361493111,0.012247581034898758,-0.01476282998919487,1.0106725692749023,-0.29469022154808044,-1.2843694686889648,-0.9726059436798096,24,0,0,48,-2.3296189308166504,0.5981693863868713,0.14297613501548767,0.0003592978173401207,0.0014294248539954424,-0.028337039053440094,0.9995973706245422
32072.505,-0.004098271951079369,0.00112288654781878,-0.04622693732380867,0.01610068790614605,-0.01123393326997757,1.009021282196045,-0.08765269070863724,-1.423195481300354,-2.080240249633789,24,-1,0,176,-2.3296189308166504,0.5981693863868713,0.14297613501548767,0.0003592978173401207,0.0014294248539954424,-0.028337039053440094,0.9995973706245422
32074.482,-0.006237953435629606,0.0019948116969317198,-0.04508334770798683,0.020702172070741653,-0.006844332907348871,1.0059105157852173,-0.006114608142524958,-1.3644003868103027,-2.62538480758667,24,-1,0,176,-2.3296244144439697,0.5981805324554443,0.14298772811889648,0.00039672208367846906,0.0017192179802805185,-0.028785336762666702,0.9995840787887573
32076.474,-0.006491522304713726,0.0020972336642444134,-0.033716097474098206,0.020600952208042145,-0.004110933281481266,1.0015839338302612,0.09217379242181778,-1.225181221961975,0.629479706287384,24,-1,0,176,-2.3296244144439697,0.5981805324554443,0.14298772811889648,0.00039672208367846906,0.0017192179802805185,-0.028785336762666702,0.9995840787887573
32078.492,-0.006491522304713726,0.0020972336642444134,-0.033716097474098206,0.017407651990652084,-0.003287707921117544,0.9973063468933105,0.13752666115760803,-1.317033052444458,3.9839818477630615,24,-1,0,176,-2.32963490486145,0.598173201084137,0.1429806500673294,0.00026660767616704106,0.0015498609282076359,-0.028479797765612602,0.999593198299408
32080.512,-0.0067297047935426235,0.002192688873037696,-0.022817591205239296,0.013631723821163177,-0.003203360131010413,0.9942732453346252,0.027219712734222412,-1.7423367500305176,3.5993781089782715,24,-1,0,176,-2.32963490486145,0.598173201084137,0.1429806500673294,0.00026660767616704106,0.0015498609282076359,-0.028479797765612602,0.999593198299408
32082.407,-0.0067297047935426235,0.002192688873037696,-0.022817591205239296,0.009083054028451443,-0.004241870250552893,0.9926877617835999,-0.06803303211927414,-2.178804636001587,1.238565444946289,24,1,0,176,-2.3292393684387207,0.5980431437492371,0.1432567685842514,1.6762569430284202e-05,0.0016728925984352827,-0.028257396072149277,0.9995993375778198
32084.398,-0.009152318350970745,0.002119115786626935,-0.012292752042412758,0.006210906896740198,-0.005851013120263815,0.991936445236206,-0.13844095170497894,-2.3427317142486572,-0.7339943051338196,24,1,0,176,-2.3292393684387207,0.5980431437492371,0.1432567685842514,1.6762569430284202e-05,0.0016728925984352827,-0.028257396072149277,0.9995993375778198
32086.367,-0.009152318350970745,0.002119115786626935,-0.012292752042412758,0.006448698230087757,-0.007477640639990568,0.9916262626647949,-0.208969384431839,-2.4264891147613525,-1.537197470664978,24,1,0,176,-2.329180955886841,0.5979931354522705,0.1432441920042038,0.0004944097017869353,0.00213603675365448,-0.02886015921831131,0.9995810985565186
32088.398,-0.00935248751193285,0.00220963335596025,-0.0005987203912809491,0.00859478022903204,-0.009033945389091969,0.9918461441993713,-0.021594194695353508,-2.393141031265259,-1.1345053911209106,24,1,0,176,-2.329180955886841,0.5979931354522705,0.1432441920042038,0.0004944097017869353,0.00213603675365448,-0.02886015921831131,0.9995810985565186
32090.41,-0.00935248751193285,0.00220963335596025,-0.0005987203912809491,0.010558314621448517,-0.011063681915402412,0.9926581382751465,0.022995445877313614,-2.431913375854492,0.06714104861021042,24,1,0,176,-2.3293650150299072,0.5980247855186462,0.14311295747756958,0.000633650051895529,0.0016542673110961914,-0.029609620571136475,0.9995600581169128
32092.322,-0.010271500796079636,0.0022349602077156305,0.01053718663752079,0.012678399682044983,-0.013358796015381813,0.9942981600761414,0.06219716742634773,-2.5644326210021973,0.44185179471969604,24,0,1,176,-2.3293650150299072,0.5980247855186462,0.14311295747756958,0.000633650051895529,0.0016542673110961914,-0.029609620571136475,0.9995600581169128
32094.291,-0.010271500796079636,0.0022349602077156305,0.01053718663752079,0.015095554292201996,-0.01454275380820036,0.9967153072357178,0.09579427540302277,-2.7924678325653076,-0.46836477518081665,24,0,1,176,-2.3294692039489746,0.5980503559112549,0.14310014247894287,0.000625928514637053,0.001502438448369503,-0.02941761538386345,0.9995659589767456
32096.275,-0.012369321659207344,0.0031588440760970116,0.02180735394358635,0.016692494973540306,-0.015025337226688862,0.999849796295166,0.015807252377271652,-3.161731243133545,-1.071956753730774,24,0,1,176,-2.3294692039489746,0.5980503559112549,0.14310014247894287,0.000625928514637053,0.001502438448369503,-0.02941761538386345,0.9995659589767456
32098.301,-0.012369321659207344,0.0031588440760970116,0.02180735394358635,0.017733408138155937,-0.01485124509781599,1.0029375553131104,-0.1678321361541748,-3.396270990371704,-0.8827059268951416,24,0,1,176,-2.3295013904571533,0.5980681777000427,0.1430954486131668,0.0010077187325805426,0.0015874332748353481,-0.030032481998205185,0.9995472431182861
32100.306,-0.012570020742714405,0.0032451872248202562,0.03329005837440491,0.02058437466621399,-0.013032562099397182,1.0050134658813477,-0.30279600620269775,-3.369154930114746,-0.7426642179489136,24,0,1,176,-2.3295013904571533,0.5980681777000427,0.1430954486131668,0.0010077187325805426,0.0015874332748353481,-0.030032481998205185,0.9995472431182861
32102.226,-0.012570020742714405,0.0032451872248202562,0.03329005837440491,0.024669568985700607,-0.010662555694580078,1.0061545372009277,-0.2297372967004776,-3.1389501094818115,-0.1674889773130417,24,0,0,48,-2.329479455947876,0.5981106162071228,0.14316526055335999,0.000856241793371737,0.0017169683706015348,-0.029711106792092323,0.9995567798614502
32104.197,-0.014610637910664082,0.004152427893131971,0.04423477128148079,0.028628459200263023,-0.00910484604537487,1.0065561532974243,-0.08231686800718307,-3.197782516479492,0.7599369883537292,24,0,0,48,-2.329479455947876,0.5981106162071228,0.14316526055335999,0.000856241793371737,0.0017169683706015348,-0.029711106792092323,0.9995567798614502
32106.178,-0.014610637910664082,0.004152427893131971,0.04423477128148079,0.033163994550704956,-0.008747323416173458,1.0064836740493774,0.04125356674194336,-3.380903482437134,1.1184334754943848,24,0,0,48,-2.3293774127960205,0.5981351137161255,0.14325852692127228,0.0011314291041344404,0.0020937244407832623,-0.029979905113577843,0.9995476603507996
32108.206,-0.014784916304051876,0.004238676745444536,0.05592900142073631,0.03947530314326286,-0.009066050872206688,1.0057997703552246,0.2176016867160797,-2.8730854988098145,0.9886584877967834,24,0,0,48,-2.3293774127960205,0.5981351137161255,0.14325852692127228,0.0011314291041344404,0.0020937244407832623,-0.029979905113577843,0.9995476603507996
32110.218,-0.014784916304051876,0.004238676745444536,0.05592900142073631,0.044990669935941696,-0.009989888407289982,1.0050709247589111,0.21379727125167847,-2.4115054607391357,1.1655220985412598,24,0,0,48,-2.329437255859375,0.5981724858283997,0.14320766925811768,0.000805631629191339,0.0021323354449123144,-0.02955189161002636,0.9995606541633606
32112.127,-0.014947918243706226,0.004323374014347792,0.06700845807790756,0.05053437128663063,-0.013331304304301739,1.004164457321167,0.024614717811346054,-3.383841037750244,0.5222194194793701,24,0,0,48,-2.329437255859375,0.5981724858283997,0.14320766925811768,0.000805631629191339,0.0021323354449123144,-0.02955189161002636,0.9995606541633606
32114.102,-0.014248326420783997,0.004293073434382677,-0.06412067264318466,0.05383741855621338,-0.01410837285220623,1.004438877105713,-0.3937585651874542,-3.949167013168335,-1.058552861213684,20,0,0,48,-2.3296332359313965,0.5981861352920532,0.1430961638689041,0.0009664236567914486,0.001603245036676526,-0.030031800270080566,0.9995472431182861
32116.083,-0.014425810426473618,0.004378644283860922,-0.053566910326480865,0.03856211155653,-0.0004199889663141221,1.0035673379898071,-0.9018617272377014,-3.6580538749694824,0.04135417938232422,20,0,0,48,-2.3296332359313965,0.5981861352920532,0.1430961638689041,0.0009664236567914486,0.001603245036676526,-0.030031800270080566,0.9995472431182861
32118.131,-0.014425810426473618,0.004378644283860922,-0.053566910326480865,0.012854446657001972,0.01912631280720234,0.9983764886856079,-0.8773913979530334,-3.313303232192993,4.5846428871154785,20,0,0,48,-2.3296332359313965,0.5981861352920532,0.1430961638689041,0.0009664236567914486,0.001603245036676526,-0.030031800270080566,0.9995472431182861
32120.113,-0.014425810426473618,0.004378644283860922,-0.053566910326480865,0.004317749757319689,0.021140707656741142,0.9923169016838074,-0.4342394769191742,-2.8603248596191406,4.7970075607299805,20,0,0,48,-2.329864501953125,0.5981906652450562,0.14289455115795135,0.0006723690312355757,0.0010031850542873144,-0.029591940343379974,0.9995614290237427
32122.036,-0.014611050486564636,0.004460207652300596,-0.043446268886327744,0.026420900598168373,0.0029232639353722334,0.9875481128692627,0.15024568140506744,-2.9730112552642822,-5.480669021606445,20,0,0,48,-2.329864501953125,0.5981906652450562,0.14289455115795135,0.0006723690312355757,0.0010031850542873144,-0.029591940343379974,0.9995614290237427
32124.008,-0.014611050486564636,0.004460207652300596,-0.043446268886327744,0.06903047859668732,-0.012928297743201256,0.9851722717285156,0.2811255156993866,-0.17299680411815643,-17.367494583129883,20,0,0,48,-2.329683542251587,0.5982035398483276,0.14310112595558167,0.0009305577841587365,0.0013664676807820797,-0.029605183750391006,0.9995602965354919
32125.987,-0.016570279374718666,0.005326149053871632,-0.03235449269413948,0.09151335060596466,-0.014088395982980728,0.9848024249076843,-0.35693907737731934,4.228964328765869,-17.963998794555664,20,0,0,48,-2.329683542251587,0.5982035398483276,0.14310112595558167,0.0009305577841587365,0.0013664676807820797,-0.029605183750391006,0.9995602965354919
32128.032,-0.016570279374718666,0.005326149053871632,-0.03235449269413948,0.06354186683893204,-0.00935284048318863,0.9860575199127197,-0.9623318910598755,1.5477356910705566,-5.89729642868042,20,0,0,48,-2.329763412475586,0.5982515811920166,0.14301571249961853,0.0011679643066599965,0.0014430017909035087,-0.030589334666728973,0.9995303750038147
32130.026,-0.016737649217247963,0.005405076313763857,-0.02167329005897045,0.007175847887992859,-0.010832776315510273,0.9897843599319458,-0.9856060147285461,-7.04405403137207,9.598163604736328,20,0,0,48,-2.329763412475586,0.5982515811920166,0.14301571249961853,0.0011679643066599965,0.0014430017909035087,-0.030589334666728973,0.9995303750038147
32131.926,-0.016737649217247963,0.005405076313763857,-0.02167329005897045,-0.02523324266076088,-0.020868301391601562,0.9940226674079895,-0.7090708613395691,-10.293863296508789,16.802091598510742,20,0,-1,176,-2.329871654510498,0.5982410907745361,0.14296546578407288,0.0012287929421290755,0.0011548878392204642,-0.03061247244477272,0.9995298981666565
32133.941,-0.018352242186665535,0.006189294625073671,-0.012638134881854057,-0.0022009301465004683,-0.028970874845981598,0.9992578029632568,-0.56468665599823,-4.939986228942871,13.101561546325684,20,0,-1,176,-2.329871654510498,0.5982410907745361,0.14296546578407288,0.0012287929421290755,0.0011548878392204642,-0.03061247244477272,0.9995298981666565
32135.904,-0.018352242186665535,0.006189294625073671,-0.012638134881854057,0.07653220742940903,-0.013541529886424541,1.0004360675811768,0.08839476853609085,2.064931631088257,9.188435554504395,20,0,-1,176,-2.3297951221466064,0.5981965661048889,0.1430937945842743,0.0010766786290332675,0.0010397309670224786,-0.03019142523407936,0.9995430707931519
32137.93,-0.018521834164857864,0.006260495632886887,-0.0015149327227845788,0.13836827874183655,0.01774086058139801,0.9967541098594666,1.1996911764144897,5.749794006347656,17.388490676879883,20,0,-1,176,-2.3297951221466064,0.5981965661048889,0.1430937945842743,0.0010766786290332675,0.0010397309670224786,-0.03019142523407936,0.9995430707931519
32139.926,-0.018521834164857864,0.006260495632886887,-0.0015149327227845788,0.09512093663215637,0.019606195390224457,0.9924396872520447,2.0733141899108887,5.0294294357299805,28.477174758911133,20,0,-1,176,-2.32966947555542,0.5981703400611877,0.14312990009784698,0.0008192909881472588,0.0014589156489819288,-0.029590846970677376,0.9995607137680054
32141.846,-0.018521834164857864,0.006260495632886887,-0.0015149327227845788,-0.0017945303115993738,-0.011156718246638775,0.9904617071151733,2.0988762378692627,-0.7149703502655029,20.39411163330078,20,-1,2,176,-2.32966947555542,0.5981703400611877,0.14312990009784698,0.0008192909881472588,0.0014589156489819288,-0.029590846970677376,0.9995607137680054
32143.839,-0.020590290427207947,0.0074040452018380165,0.008669765666127205,-0.02972511574625969,-0.04279805347323418,0.9907726645469666,0.8850342631340027,-8.151527404785156,-7.458840370178223,20,-1,2,176,-2.329738140106201,0.5981379151344299,0.14315511286258698,0.0009220218635164201,0.0011822165688499808,-0.02984824776649475,0.999553382396698
32145.806,-0.020760351791977882,0.007468269672244787,0.020085744559764862,0.04012765362858772,-0.04834015294909477,0.9935473799705505,-0.938029944896698,-9.010332107543945,-30.362384796142578,20,-1,2,176,-2.329738140106201,0.5981379151344299,0.14315511286258698,0.0009220218635164201,0.0011822165688499808,-0.02984824776649475,0.999553382396698
32147.822,-0.020760351791977882,0.007468269672244787,0.020085744559764862,0.12095161527395248,-0.02427382953464985,0.9935534000396729,-1.9493483304977417,-0.6160025000572205,-23.07264518737793,20,-1,2,176,-2.3294944763183594,0.598109245300293,0.14325149357318878,0.0013211551122367382,0.0019457293674349785,-0.030516650527715683,0.9995315670967102
32149.825,-0.020892586559057236,0.007522803731262684,0.030959613621234894,0.12497608363628387,-0.008723223581910133,0.9939311742782593,-1.2104878425598145,8.478473663330078,7.473893642425537,20,-1,2,176,-2.3294944763183594,0.598109245300293,0.14325149357318878,0.0013211551122367382,0.0019457293674349785,-0.030516650527715683,0.9995315670967102
32151.735,-0.020892586559057236,0.007522803731262684,0.030959613621234894,0.0630919560790062,-0.010507810860872269,0.9971441626548767,0.07491681724786758,8.407854080200195,26.008541107177734,20,0,-2,176,-2.3294246196746826,0.5981318950653076,0.14324617385864258,0.0007927354308776557,0.0019212989136576653,-0.02968435361981392,0.9995572566986084
32153.722,-0.02014179341495037,0.00815504603087902,0.040879491716623306,0.007205301430076361,-0.005891724023967981,0.9993327856063843,0.7728978991508484,0.17298400402069092,18.88419532775879,20,0,-2,176,-2.3294246196746826,0.5981318950653076,0.14324617385864258,0.0007927354308776557,0.0019212989136576653,-0.02968435361981392,0.9995572566986084
32155.714,-0.02014179341495037,0.00815504603087902,0.040879491716623306,0.018070006743073463,0.006067061331123114,0.998826265335083,1.0119303464889526,-6.0015716552734375,5.418447017669678,20,0,-2,176,-2.3294246196746826,0.5981318950653076,0.14324617385864258,0.0007927354308776557,0.0019212989136576653,-0.02968435361981392,0.9995572566986084
32157.726,-0.02014179341495037,0.00815504603087902,0.040879491716623306,0.07298542559146881,0.019406430423259735,0.9975901246070862,0.7827407121658325,-2.810504674911499,2.373278856277466,23,0,-2,176,-2.329572916030884,0.5980920791625977,0.1431851089000702,0.0008462748373858631,0.0016364643815904856,-0.029525985941290855,0.9995623826980591
32159.744,-0.017933279275894165,0.0074082231149077415,-0.05664874613285065,0.08715519309043884,0.022875819355249405,0.9971981644630432,0.6688106656074524,4.865402698516846,11.062294960021973,23,0,-2,176,-2.3296587467193604,0.5980871915817261,0.14308719336986542,0.000782301533035934,0.0010877784807235003,-0.029672492295503616,0.9995588064193726
32161.65,-0.017933279275894165,0.0074082231149077415,-0.05664874613285065,0.045834288001060486,0.0031992082949727774,1.0000492334365845,1.2576004266738892,6.829715728759766,19.509906768798828,23,0,-1,176,-2.3296587467193604,0.5980871915817261,0.14308719336986542,0.000782301533035934,0.0010877784807235003,-0.029672492295503616,0.9995588064193726
32163.63,-0.01651882566511631,0.007022461388260126,-0.04717445373535156,0.016687970608472824,-0.022571086883544922,0.9975811839103699,1.7128150463104248,1.948516845703125,14.90397834777832,23,0,-1,176,-2.329495906829834,0.5980703234672546,0.1432366818189621,0.0008311684359796345,0.0015874006785452366,-0.029657259583473206,0.9995586276054382
32165.609,-0.018446773290634155,0.007820317521691322,-0.03685326874256134,0.028087321668863297,-0.03086436353623867,0.9883647561073303,1.5142370462417603,-1.6102054119110107,6.991602420806885,23,0,-1,176,-2.329495906829834,0.5980703234672546,0.1432366818189621,0.0008311684359796345,0.0015874006785452366,-0.029657259583473206,0.9995586276054382
32167.635,-0.018446773290634155,0.007820317521691322,-0.03685326874256134,0.021277982741594315,-0.015333925373852253,0.9839192628860474,-0.10512104630470276,-0.8193352222442627,10.321549415588379,23,0,-1,176,-2.3296520709991455,0.5980686545372009,0.14306673407554626,0.0008511522319167852,0.0008919046958908439,-0.029351582750678062,0.9995684027671814
32169.643,-0.018620986491441727,0.007869386114180088,-0.026941074058413506,-0.025163499638438225,0.004891856107860804,0.9859637022018433,-2.6952178478240967,-0.19590014219284058,14.488801956176758,23,0,-1,176,-2.3296520709991455,0.5980686545372009,0.14306673407554626,0.0008511522319167852,0.0008919046958908439,-0.029351582750678062,0.9995684027671814
32171.561,-0.01814795844256878,0.007173908408731222,-0.026905177161097527,-0.048317037522792816,0.02601509913802147,0.9858391880989075,-4.597053527832031,-0.3822670876979828,4.632949352264404,23,1,0,176,-2.3296520709991455,0.5980686545372009,0.14306673407554626,0.0008511522319167852,0.0008919046958908439,-0.029351582750678062,0.9995684027671814
32173.541,-0.01814795844256878,0.007173908408731222,-0.026905177161097527,-0.005755362566560507,0.06614398211240768,0.9874320030212402,-5.487195014953613,1.783596158027649,-14.77025032043457,23,1,0,176,-2.3294544219970703,0.5980799794197083,0.1430990844964981,0.0003769577597267926,0.0014477676013484597,-0.028910445049405098,0.9995809197425842
32175.511,-0.01997552439570427,0.007930358871817589,-0.017085568979382515,0.044278379529714584,0.11701411008834839,0.9896085858345032,-5.517772197723389,3.567565441131592,-26.67787742614746,23,1,0,176,-2.329986572265625,0.5982331037521362,0.14269046485424042,0.0005806665285490453,0.0008740035118535161,-0.029720840975642204,0.9995576739311218
32177.54,-0.02017195336520672,0.007998236455023289,-0.006782543379813433,0.04759467765688896,0.1354556530714035,1.000616431236267,-4.267508506774902,0.8636267185211182,-21.237565994262695,23,1,0,176,-2.329986572265625,0.5982331037521362,0.14269046485424042,0.0005806665285490453,0.0008740035118535161,-0.029720840975642204,0.9995576739311218
32179.546,-0.02017195336520672,0.007998236455023289,-0.006782543379813433,0.025970319285988808,0.0975985899567604,1.0259712934494019,-1.6651713848114014,-2.9243457317352295,-5.789870738983154,23,1,0,176,-2.329986572265625,0.5982331037521362,0.14269046485424042,0.0005806665285490453,0.0008740035118535161,-0.029720840975642204,0.9995576739311218
32181.453,-0.02017195336520672,0.007998236455023289,-0.006782543379813433,0.010899166576564312,0.04797915741801262,1.0464179515838623,0.2467551827430725,-2.323385715484619,9.43631649017334,23,0,2,176,-2.3300082683563232,0.5982880592346191,0.14266592264175415,0.0006865171599201858,0.000815433741081506,-0.030134668573737144,0.9995453357696533
32183.435,-0.02279733307659626,0.008743605576455593,0.004069456364959478,0.0017247458454221487,0.021300137042999268,1.0515259504318237,-0.3143681585788727,-1.4196044206619263,16.54387092590332,23,0,2,176,-2.3300082683563232,0.5982880592346191,0.14266592264175415,0.0006865171599201858,0.000815433741081506,-0.030134668573737144,0.9995453357696533
32185.413,-0.02279733307659626,0.008743605576455593,0.004069456364959478,-0.02306867577135563,-0.00576661666855216,1.0547324419021606,-2.0531105995178223,-4.155974388122559,14.685182571411133,23,0,2,176,-2.3300082683563232,0.5982880592346191,0.14266592264175415,0.0006865171599201858,0.000815433741081506,-0.030134668573737144,0.9995453357696533
32187.44,-0.02279733307659626,0.008743605576455593,0.004069456364959478,-0.055080264806747437,-0.039267633110284805,1.0617218017578125,-3.836298704147339,-4.148815631866455,9.81961727142334,23,0,2,176,-2.3300082683563232,0.5982880592346191,0.14266592264175415,0.0006865171599201858,0.000815433741081506,-0.030134668573737144,0.9995453357696533
32189.449,-0.02279733307659626,0.008743605576455593,0.004069456364959478,-0.04952947050333023,-0.024222347885370255,1.0769734382629395,-5.872905254364014,0.08563024550676346,2.8043670654296875,23,-1,-1,176,-2.3300082683563232,0.5982880592346191,0.14266592264175415,0.0006865171599201858,0.000815433741081506,-0.030134668573737144,0.9995453357696533
32191.353,-0.021643226966261864,0.010004076175391674,0.004174063913524151,-0.020453473553061485,0.06604965031147003,1.0975879430770874,-8.102154731750488,0.7541526556015015,-1.1230473518371582,23,-1,-1,176,-2.3300082683563232,0.5982880592346191,0.14266592264175415,0.0006865171599201858,0.000815433741081506,-0.030134668573737144,0.9995453357696533
32193.334,-0.02330245077610016,0.010777957737445831,0.010770685039460659,-0.006086672656238079,0.19045987725257874,1.1377183198928833,-8.082600593566895,-0.9422149658203125,6.5677924156188965,23,-1,-1,176,-2.3300082683563232,0.5982880592346191,0.14266592264175415,0.0006865171599201858,0.000815433741081506,-0.030134668573737144,0.9995453357696533
32195.315,-0.02330245077610016,0.010777957737445831,0.010770685039460659,-0.002967892913147807,0.305908203125,1.2167681455612183,-3.9287269115448,-3.081059694290161,23.550189971923828,23,-1,-1,176,-2.3300082683563232,0.5982880592346191,0.14266592264175415,0.0006865171599201858,0.000815433741081506,-0.030134668573737144,0.9995453357696533
32197.344,-0.02330245077610016,0.010777957737445831,0.010770685039460659,0.02401033602654934,0.362516850233078,1.3456735610961914,4.7509765625,-7.49808406829834,38.3101921081543,23,-1,-1,176,-2.3300654888153076,0.5983554720878601,0.1425865888595581,0.0004919036873616278,0.0007915851310826838,-0.029797516763210297,0.9995555877685547
32199.362,-0.02352105639874935,0.01083383522927761,0.02262382209300995,0.058348432183265686,0.27555373311042786,1.5178817510604858,16.676271438598633,-5.807946681976318,49.6185188293457,23,1,0,176,-2.3300654888153076,0.5983554720878601,0.1425865888595581,0.0004919036873616278,0.0007915851310826838,-0.029797516763210297,0.9995555877685547
32201.264,-0.023625865578651428,0.0073224338702857494,0.023053914308547974,0.04946783930063248,0.030588453635573387,1.691872000694275,26.793365478515625,5.224629878997803,55.84856414794922,23,1,0,176,-2.330120325088501,0.598436176776886,0.14260928332805634,0.00025914813159033656,0.00041663183947093785,-0.03007395938038826,0.9995476007461548
32203.238,-0.023625865578651428,0.0073224338702857494,0.023053914308547974,0.011815395206212997,-0.23795397579669952,1.7935659885406494,28.704389572143555,9.090218544006348,39.52165603637695,23,1,0,176,-2.3300929069519043,0.5985316038131714,0.14269305765628815,-5.0028647819999605e-05,0.0005874932976439595,-0.0297059565782547,0.9995585083961487
32205.219,-0.023625865578651428,0.0073224338702857494,0.023053914308547974,0.005195689853280783,-0.39218762516975403,1.8055812120437622,20.585824966430664,-0.8216500878334045,0.5364403128623962,23,1,0,176,-2.3295116424560547,0.5985470414161682,0.14358043670654297,0.00037956706364639103,0.0018325686687603593,-0.029360176995396614,0.9995672106742859
32207.248,-0.023625865578651428,0.0073224338702857494,0.023053914308547974,0.002965876366943121,-0.43758058547973633,1.7325950860977173,4.561227321624756,-5.441492557525635,-28.317886352539062,23,1,0,176,-2.3295116424560547,0.5985470414161682,0.14358043670654297,0.00037956706364639103,0.0018325686687603593,-0.029360176995396614,0.9995672106742859
32209.281,-0.0261948611587286,0.008763547986745834,0.04790182784199715,-0.010099598206579685,-0.441866397857666,1.597662329673767,-15.825677871704102,1.554226279258728,-33.749298095703125,23,-26,7,176,-2.33010196685791,0.5988691449165344,0.1433090716600418,0.0011289679678156972,0.001370617770589888,-0.030153298750519753,0.9995437860488892
32211.161,-0.0261948611587286,0.008763547986745834,0.04790182784199715,-0.026241658255457878,-0.4652755558490753,1.425113558769226,-35.260833740234375,-0.6512312889099121,-28.216922760009766,23,-26,7,176,-2.33010196685791,0.5988691449165344,0.1433090716600418,0.0011289679678156972,0.001370617770589888,-0.030153298750519753,0.9995437860488892
32213.143,-0.029033515602350235,0.03314078599214554,0.05855555832386017,-0.01050560362637043,-0.5118805170059204,1.20859694480896,-48.314857482910156,-14.837773323059082,-23.713544845581055,23,-26,7,176,-2.3304059505462646,0.5987991094589233,0.1441251039505005,-0.0012210794957354665,2.4823448256938718e-05,-0.02445637248456478,0.9997001886367798
32215.124,-0.02920365147292614,0.03308631107211113,0.0681445449590683,0.05978017672896385,-0.5465536713600159,0.985492467880249,-51.605709075927734,-18.411331176757812,-22.68303108215332,23,-26,7,176,-2.3304059505462646,0.5987991094589233,0.1441251039505005,-0.0012210794957354665,2.4823448256938718e-05,-0.02445637248456478,0.9997001886367798
32217.163,-0.02920365147292614,0.03308631107211113,0.0681445449590683,0.07327134162187576,-0.6296908855438232,0.7922171354293823,-42.91280746459961,-12.704434394836426,-8.231463432312012,23,-26,7,176,-2.3304059505462646,0.5987991094589233,0.1441251039505005,-0.0012210794957354665,2.4823448256938718e-05,-0.02445637248456478,0.9997001886367798
32219.193,-0.03134405240416527,0.03355749696493149,0.10816699266433716,0.008535291999578476,-0.8693194389343262,0.6268025040626526,-19.21851921081543,-15.043438911437988,27.010211944580078,23,10,4,176,-2.3300273418426514,0.5987986922264099,0.14529092609882355,0.0003462051972746849,-0.005392984487116337,-0.02966591902077198,0.9995453357696533
32221.067,-0.034837447106838226,0.026990815997123718,0.10816047340631485,-0.006379224359989166,-1.1802434921264648,0.5324413776397705,15.697193145751953,-21.314407348632812,63.400146484375,23,10,4,176,-2.3300273418426514,0.5987986922264099,0.14529092609882355,0.0003462051972746849,-0.005392984487116337,-0.02966591902077198,0.9995453357696533
32223.047,-0.034837447106838226,0.026990815997123718,0.10816047340631485,0.01841272972524166,-1.2731068134307861,0.6218267679214478,49.992977142333984,-18.748796463012695,60.76544189453125,23,10,4,176,-2.3300273418426514,0.5987986922264099,0.14529092609882355,0.0003462051972746849,-0.005392984487116337,-0.02966591902077198,0.9995453357696533
32225.038,-0.034837447106838226,0.026990815997123718,0.10816047340631485,0.034940559417009354,-0.9879096746444702,0.8315348029136658,77.43246459960938,-14.849203109741211,-2.3741323947906494,23,10,4,176,-2.3300273418426514,0.5987986922264099,0.14529092609882355,0.0003462051972746849,-0.005392984487116337,-0.02966591902077198,0.9995453357696533
32227.063,-0.034837447106838226,0.026990815997123718,0.10816047340631485,0.053116682916879654,-0.5331010222434998,1.1958106756210327,96.28883361816406,-15.565702438354492,-80.91995239257812,23,10,4,176,-2.3301517963409424,0.5981659889221191,0.1458558589220047,-0.0004930313443765044,-0.004883254878222942,-0.03054841421544552,0.9995213150978088
32229.08,-0.03513997420668602,0.02673553302884102,0.1283746212720871,0.0905444398522377,-0.35383397340774536,1.7674933671951294,104.48095703125,-15.323387145996094,-87.7862548828125,23,15,0,176,-2.3307595252990723,0.5975098013877869,0.1454494446516037,0.007933711633086205,-0.0065386430360376835,-0.038045451045036316,0.9992232322692871
32230.97,-0.03513997420668602,0.02673553302884102,0.1283746212720871,0.05645878240466118,-0.7488178014755249,2.304551362991333,106.77300262451172,-12.981961250305176,10.375778198242188,23,15,0,176,-2.3307595252990723,0.5975098013877869,0.1454494446516037,0.007933711633086205,-0.0065386430360376835,-0.038045451045036316,0.9992232322692871
32232.952,-0.037737347185611725,-0.0008565309108234942,0.1328059434890747,-0.1366371065378189,-1.3053414821624756,2.5510506629943848,93.03685760498047,-11.094170570373535,106.43360137939453,23,15,0,176,-2.3307595252990723,0.5975098013877869,0.1454494446516037,0.007933711633086205,-0.0065386430360376835,-0.038045451045036316,0.9992232322692871
32234.933,-0.037737347185611725,-0.0008565309108234942,0.1328059434890747,-0.3874590992927551,-1.0176819562911987,2.619452476501465,35.98476028442383,-11.413077354431152,24.389297485351562,23,15,0,176,-2.3307595252990723,0.5975098013877869,0.1454494446516037,0.007933711633086205,-0.0065386430360376835,-0.038045451045036316,0.9992232322692871
32236.967,-0.037737347185611725,-0.0008565309108234942,0.1328059434890747,-0.4995763301849365,0.5292688012123108,2.4182896614074707,-62.845191955566406,-18.264511108398438,-224.21112060546875,23,15,0,176,-2.3307595252990723,0.5975098013877869,0.1454494446516037,0.007933711633086205,-0.0065386430360376835,-0.038045451045036316,0.9992232322692871
32238.979,-0.037737347185611725,-0.0008565309108234942,0.1328059434890747,-0.30968281626701355,2.2701199054718018,1.7952717542648315,-129.4215850830078,-28.586400985717773,-358.6177062988281,23,8,23,176,-2.330798625946045,0.5969666838645935,0.1480659544467926,0.008281273767352104,-0.007436991203576326,-0.021710654720664024,0.9997024536132812
32240.874,-0.037737347185611725,-0.0008565309108234942,0.1328059434890747,-0.008164984174072742,2.9793918132781982,0.9768731594085693,-129.4557342529297,-21.536848068237305,-134.96791076660156,23,8,23,176,-2.330798625946045,0.5969666838645935,0.1480659544467926,0.008281273767352104,-0.007436991203576326,-0.021710654720664024,0.9997024536132812
32242.855,-0.037737347185611725,-0.0008565309108234942,0.1328059434890747,0.17174050211906433,2.389226198196411,0.30555325746536255,-99.23472595214844,4.424886226654053,217.9771728515625,23,8,23,176,-2.331301689147949,0.5960730314254761,0.1479586660861969,0.002537107327952981,-0.0036502128932625055,-0.0174246858805418,0.9998382925987244
32244.844,-0.05965257063508034,0.013216373510658741,0.3087179660797119,0.10846927016973495,1.1060634851455688,0.007143053691834211,-76.99642944335938,16.16717529296875,308.23114013671875,23,8,23,176,-2.331301689147949,0.5960730314254761,0.1479586660861969,0.002537107327952981,-0.0036502128932625055,-0.0174246858805418,0.9998382925987244
32246.866,-0.05965257063508034,0.013216373510658741,0.3087179660797119,-0.09577587246894836,-0.02840256690979004,0.0455007404088974,-79.5291976928711,-5.422203540802002,81.30192565917969,21,8,23,176,-2.3309080600738525,0.5945046544075012,0.14977094531059265,-0.003784343833103776,-0.007734514772891998,-0.03291110694408417,0.9994211792945862
32248.878,-0.056759148836135864,0.010663814842700958,0.16539625823497772,-0.22269785404205322,-0.6282015442848206,0.3926186263561249,-83.5917739868164,-26.312847137451172,-233.4530487060547,21,16,6,176,-2.3309080600738525,0.5945046544075012,0.14977094531059265,-0.003784343833103776,-0.007734514772891998,-0.03291110694408417,0.9994211792945862
32250.78,-0.06210432946681976,0.010165604762732983,0.1649916023015976,-0.23025107383728027,-0.49196162819862366,0.9460747241973877,-63.881717681884766,-12.216064453125,-372.7455139160156,21,16,6,176,-2.3310272693634033,0.5946735143661499,0.15002430975437164,-0.006231254898011684,-0.00884965993463993,-0.03465082123875618,0.9993408918380737
32252.761,-0.062136899679899216,0.009803524240851402,0.17531244456768036,-0.11987230181694031,0.18581488728523254,1.5453847646713257,-13.323774337768555,9.532674789428711,-287.2385559082031,21,16,6,176,-2.3310272693634033,0.5946735143661499,0.15002430975437164,-0.006231254898011684,-0.00884965993463993,-0.03465082123875618,0.9993408918380737
32254.745,-0.062136899679899216,0.009803524240851402,0.17531244456768036,0.1705159991979599,0.9421269297599792,2.0920050144195557,50.18553924560547,8.299783706665039,-67.39458465576172,21,16,6,176,-2.3312182426452637,0.5955570936203003,0.15006227791309357,-0.0024561057798564434,-0.00504761328920722,-0.036272767931222916,0.9993261694908142
32256.771,-0.062149617820978165,0.009496152400970459,0.18524549901485443,0.508362889289856,1.3495879173278809,2.513706922531128,96.22159576416016,4.192872524261475,164.03439331054688,21,16,6,176,-2.3312182426452637,0.5955570936203003,0.15006227791309357,-0.0024561057798564434,-0.00504761328920722,-0.036272767931222916,0.9993261694908142
32258.772,-0.062149617820978165,0.009496152400970459,0.18524549901485443,0.5695157647132874,1.0817314386367798,2.7938103675842285,110.09945678710938,6.711552143096924,271.3778076171875,21,10,21,176,-2.331810474395752,0.5955734848976135,0.15078692138195038,-0.002459361217916012,-0.003773428499698639,-0.03932977095246315,0.9992161393165588
32260.685,-0.07692821323871613,-0.013773745857179165,0.2427317053079605,0.300484299659729,0.14503410458564758,3.0135538578033447,99.01618957519531,8.40909481048584,205.93540954589844,21,10,21,176,-2.331810474395752,0.5955734848976135,0.15078692138195038,-0.002459361217916012,-0.003773428499698639,-0.03932977095246315,0.9992161393165588
32262.665,-0.07692821323871613,-0.013773745857179165,0.2427317053079605,-0.05046417936682701,-1.070574402809143,3.1450438499450684,80.76764678955078,16.30967903137207,58.16658401489258,21,10,21,176,-2.3324828147888184,0.5956513285636902,0.15178796648979187,0.00042205501813441515,-0.0037181214429438114,-0.03721679002046585,0.9993002414703369
32264.646,-0.07694185525178909,-0.013785273768007755,0.2530592679977417,-0.2162649929523468,-1.5853991508483887,2.931462049484253,43.005374908447266,28.777315139770508,-62.74462890625,21,10,21,176,-2.3324828147888184,0.5956513285636902,0.15178796648979187,0.00042205501813441515,-0.0037181214429438114,-0.03721679002046585,0.9993002414703369
32266.681,-0.07694185525178909,-0.013785273768007755,0.2530592679977417,-0.016927454620599747,-0.5661677718162537,2.522939920425415,-30.435834884643555,28.829479217529297,-161.5955810546875,21,10,21,176,-2.332226514816284,0.5966607928276062,0.15379966795444489,0.002346605062484741,-0.0032385827507823706,-0.02525973692536354,0.9996730089187622
32268.685,-0.07693691551685333,-0.013744758442044258,0.26325246691703796,0.2875220477581024,1.5330920219421387,2.163220167160034,-104.86451721191406,17.194021224975586,-186.9575958251953,21,-8,-10,176,-2.332226514816284,0.5966607928276062,0.15379966795444489,0.002346605062484741,-0.0032385827507823706,-0.02525973692536354,0.9996730089187622
32270.593,-0.07443732768297195,0.012235715053975582,0.45945313572883606,0.3757643401622772,3.159806251525879,1.6480023860931396,-123.55482482910156,0.822176992893219,-5.900951862335205,21,-8,-10,176,-2.3316948413848877,0.5980339646339417,0.1565733253955841,0.004793625790625811,-0.009223289787769318,-0.011542949825525284,0.9998793601989746
32272.57,-0.07450003921985626,0.012095832265913486,0.4701647460460663,0.28340229392051697,3.051034450531006,1.183192491531372,-76.55258178710938,-6.88730001449585,336.0179443359375,21,-8,-10,176,-2.3316948413848877,0.5980339646339417,0.1565733253955841,0.004793625790625811,-0.009223289787769318,-0.011542949825525284,0.9998793601989746
32274.564,-0.07450003921985626,0.012095832265913486,0.4701647460460663,-0.010333103127777576,1.2623090744018555,1.1582592725753784,-16.983835220336914,8.312665939331055,582.7872924804688,21,-8,-10,176,-2.3316948413848877,0.5980339646339417,0.1565733253955841,0.004793625790625811,-0.009223289787769318,-0.011542949825525284,0.9998793601989746
32276.579,-0.07450003921985626,0.012095832265913486,0.4701647460460663,-0.44434744119644165,-1.0084588527679443,1.414537787437439,2.2310755252838135,24.228052139282227,487.92413330078125,21,-8,-10,176,-2.332249164581299,0.5966302156448364,0.15744461119174957,-0.0010049958946183324,-0.004773476626724005,-0.026760298758745193,0.9996300339698792
32278.597,-0.07727403938770294,0.012297427281737328,0.5255076885223389,-0.8179374933242798,-2.6781487464904785,1.7671657800674438,-15.559391021728516,15.727180480957031,116.6088638305664,21,33,-16,176,-2.332249164581299,0.5966302156448364,0.15744461119174957,-0.0010049958946183324,-0.004773476626724005,-0.026760298758745193,0.9996300339698792
32280.496,-0.07727403938770294,0.012297427281737328,0.5255076885223389,-0.8869859576225281,-3.449434518814087,2.135908842086792,-23.945907592773438,-6.761316776275635,-230.2996826171875,21,33,-16,176,-2.3307652473449707,0.5992679595947266,0.15942351520061493,-0.02272634580731392,0.0009516222635284066,-0.02405136078596115,0.9994519352912903
32282.474,-0.06388136744499207,-0.014539273455739021,0.5423416495323181,-0.5505915284156799,-3.155515670776367,2.339359998703003,-1.2402554750442505,-11.942391395568848,-399.26611328125,21,33,-16,176,-2.3307652473449707,0.5992679595947266,0.15942351520061493,-0.02272634580731392,0.0009516222635284066,-0.02405136078596115,0.9994519352912903
32284.454,-0.06388136744499207,-0.014539273455739021,0.5423416495323181,-0.09217456728219986,-1.6849716901779175,2.3159611225128174,32.9815559387207,5.022869110107422,-424.9280090332031,21,33,-16,176,-2.3316519260406494,0.5976405739784241,0.16236887872219086,-0.001602999516762793,-0.007446360774338245,-0.02376846969127655,0.9996885061264038
32286.485,-0.0639834925532341,-0.01450476236641407,0.5529770851135254,0.14072543382644653,0.303706556558609,2.1208407878875732,62.94395065307617,17.056739807128906,-282.6650085449219,21,33,-16,176,-2.3316519260406494,0.5976405739784241,0.16236887872219086,-0.001602999516762793,-0.007446360774338245,-0.02376846969127655,0.9996885061264038
32288.495,-0.0639834925532341,-0.01450476236641407,0.5529770851135254,0.08515262603759766,1.2366515398025513,1.8649438619613647,80.56134796142578,12.7196626663208,79.41191101074219,21,-9,-8,176,-2.3330700397491455,0.5982553362846375,0.16430963575839996,0.003014157759025693,-0.0031693573109805584,-0.01801753230392933,0.9998281002044678
32290.414,-0.06171703338623047,-0.0142356613650918,0.6827903985977173,-0.2943410873413086,0.4379132390022278,1.573046088218689,63.3458251953125,21.11077117919922,456.4670715332031,21,-9,-8,176,-2.3330700397491455,0.5982553362846375,0.16430963575839996,0.003014157759025693,-0.0031693573109805584,-0.01801753230392933,0.9998281002044678
32292.378,-0.06171703338623047,-0.0142356613650918,0.6827903985977173,-0.726884663105011,-0.9982438087463379,1.1922643184661865,3.6635549068450928,44.47256851196289,440.56549072265625,33,-9,-8,176,-2.3328871726989746,0.5967915654182434,0.16691488027572632,-0.0031454134732484818,0.000738535774871707,-0.01941131241619587,0.9998064041137695
32294.359,-0.056293126195669174,-0.01398059818893671,0.5298711657524109,-0.6439061164855957,-1.424838662147522,0.795834481716156,-68.55083465576172,54.24806213378906,2.3826828002929688,33,-9,-8,176,-2.3328871726989746,0.5967915654182434,0.16691488027572632,-0.0031454134732484818,0.000738535774871707,-0.01941131241619587,0.9998064041137695
32296.388,-0.056293126195669174,-0.01398059818893671,0.5298711657524109,-0.048491887748241425,-0.4763078987598419,0.6396355628967285,-108.11041259765625,51.54111862182617,-324.2181396484375,33,-9,-8,176,-2.332381248474121,0.5965927839279175,0.17036600410938263,-0.0003141439228784293,-0.0026005033869296312,-0.028227977454662323,0.9995980858802795
32298.404,-0.05647183954715729,-0.01391368918120861,0.5403821468353271,0.40837395191192627,0.30337950587272644,0.7229906320571899,-84.35103607177734,46.299476623535156,-171.02609252929688,33,15,13,176,-2.332381248474121,0.5965927839279175,0.17036600410938263,-0.0003141439228784293,-0.0026005033869296312,-0.028227977454662323,0.9995980858802795
32300.301,-0.05647183954715729,-0.01391368918120861,0.5403821468353271,0.2555777430534363,-0.05862667039036751,0.6559126377105713,-32.12021255493164,40.055397033691406,184.46385192871094,33,15,13,176,-2.332629442214966,0.5964996814727783,0.1718464344739914,-0.0037381656002253294,0.003495119046419859,-0.011645792983472347,0.9999191761016846
32302.283,-0.05989111214876175,-0.008226373232901096,0.5662448406219482,-0.24361523985862732,-0.7146496772766113,0.36761772632598877,-26.44247055053711,27.420352935791016,254.03390502929688,33,15,13,176,-2.332629442214966,0.5964996814727783,0.1718464344739914,-0.0037381656002253294,0.003495119046419859,-0.011645792983472347,0.9999191761016846
32304.263,-0.05989111214876175,-0.008226373232901096,0.5662448406219482,-0.5992258191108704,-0.4974071681499481,0.37785473465919495,-76.00199127197266,18.724699020385742,2.0773682594299316,33,15,13,176,-2.3308029174804688,0.5961747169494629,0.17469191551208496,-0.007443292532116175,0.016786864027380943,-0.009679271839559078,0.9997845888137817
32306.293,-0.05983395874500275,-0.008309469558298588,0.5771861672401428,-0.8402072191238403,0.48523634672164917,0.564172625541687,-146.92337036132812,17.724411010742188,-166.26889038085938,33,15,13,176,-2.3308029174804688,0.5961747169494629,0.17469191551208496,-0.007443292532116175,0.016786864027380943,-0.009679271839559078,0.9997845888137817
32308.294,-0.05983395874500275,-0.008309469558298588,0.5771861672401428,-0.7526599168777466,1.4000427722930908,0.6300687789916992,-185.01144409179688,18.532251358032227,-108.62059783935547,33,-15,11,176,-2.3304824829101562,0.5949435830116272,0.17800946533679962,-0.0024304604157805443,0.012760036624968052,-0.010375943966209888,0.9998618960380554
32310.207,-0.06312237679958344,0.030024323612451553,0.5635389685630798,-0.2599305212497711,1.7981802225112915,0.45004212856292725,-173.14788818359375,23.808979034423828,34.67040252685547,33,-15,11,176,-2.3304824829101562,0.5949435830116272,0.17800946533679962,-0.0024304604157805443,0.012760036624968052,-0.010375943966209888,0.9998618960380554
32312.193,-0.06312237679958344,0.030024323612451553,0.5635389685630798,0.11278871446847916,1.552608609199524,0.1481698900461197,-131.02256774902344,19.94964599609375,129.6088409423828,33,-15,11,176,-2.3338959217071533,0.596211314201355,0.17896685004234314,-0.016051579266786575,0.005016856826841831,-0.0008670268580317497,0.9998582005500793
32314.168,-0.06331570446491241,0.029452059417963028,0.5742136836051941,0.1440596878528595,0.8185860514640808,0.00445814523845911,-89.58914184570312,4.41839599609375,109.0998764038086,33,-15,11,176,-2.3338959217071533,0.596211314201355,0.17896685004234314,-0.016051579266786575,0.005016856826841831,-0.0008670268580317497,0.9998582005500793
32316.198,-0.06331570446491241,0.029452059417963028,0.5742136836051941,0.027652226388454437,0.13492290675640106,0.0871177390217781,-77.46517944335938,-5.312554359436035,14.21401596069336,33,-15,11,176,-2.332791805267334,0.5966498255729675,0.18151110410690308,-0.031170831993222237,0.013520654290914536,-0.011013098992407322,0.9993619918823242
32318.203,-0.06336551904678345,0.029067309573292732,0.5847970843315125,-0.12197059392929077,-0.2056320607662201,0.41232097148895264,-71.41450500488281,1.3690578937530518,-103.91165161132812,33,25,-2,176,-2.332791805267334,0.5966498255729675,0.18151110410690308,-0.031170831993222237,0.013520654290914536,-0.011013098992407322,0.9993619918823242
32320.113,-0.05993451923131943,0.01804024539887905,0.5021079778671265,-0.2740934491157532,-0.2197933942079544,0.938959002494812,-34.992652893066406,16.827980041503906,-163.64871215820312,33,25,-2,176,-2.332791805267334,0.5966498255729675,0.18151110410690308,-0.031170831993222237,0.013520654290914536,-0.011013098992407322,0.9993619918823242
32322.091,-0.05993451923131943,0.01804024539887905,0.5021079778671265,-0.21936677396297455,-0.014068524353206158,1.5660779476165771,40.41237258911133,28.68039321899414,-148.6396942138672,33,25,-2,176,-2.3342370986938477,0.596230149269104,0.18215830624103546,-0.02473517134785652,0.010013260878622532,-0.021436963230371475,0.9994140267372131
32324.082,-0.060073770582675934,0.017529523000121117,0.5128926038742065,0.14741061627864838,0.21679824590682983,2.082561731338501,125.82435607910156,27.75617027282715,-92.86188507080078,33,25,-2,176,-2.3342370986938477,0.596230149269104,0.18215830624103546,-0.02473517134785652,0.010013260878622532,-0.021436963230371475,0.9994140267372131
32326.101,-0.060073770582675934,0.017529523000121117,0.5128926038742065,0.5231319069862366,0.13150443136692047,2.3639791011810303,180.3797149658203,16.273792266845703,30.656570434570312,33,25,-2,176,-2.3350396156311035,0.5964786410331726,0.18464036285877228,-0.019770052284002304,0.005376236047595739,-0.030931411311030388,0.9993115663528442
32328.121,-0.06029393896460533,0.017017127946019173,0.5235797762870789,0.29468685388565063,-0.5603911876678467,2.3386571407318115,170.19737243652344,3.537262439727783,184.4474639892578,33,0,25,176,-2.3359012603759766,0.5967777371406555,0.1865999698638916,-0.014302709139883518,0.0051754857413470745,-0.03795497864484787,0.9991637468338013
32330.015,-0.06029393896460533,0.017017127946019173,0.5235797762870789,-0.3885957598686218,-1.1352285146713257,2.093461751937866,89.4430923461914,0.11423253268003464,162.8723907470703,33,0,25,176,-2.3359012603759766,0.5967777371406555,0.1865999698638916,-0.014302709139883518,0.0051754857413470745,-0.03795497864484787,0.9991637468338013
32331.997,-0.0726887583732605,0.005413554143160582,0.6358963847160339,-0.6538184285163879,-0.5154367089271545,1.7244843244552612,-20.336702346801758,11.12587833404541,-123.99224090576172,33,0,25,176,-2.336378574371338,0.5986804366111755,0.1891452819108963,-0.010467901825904846,0.006771500688046217,-0.021361522376537323,0.9996941089630127
32333.983,-0.07287757843732834,0.005434304475784302,0.6461569666862488,-0.24177953600883484,1.2409356832504272,1.3333332538604736,-106.03108978271484,26.093523025512695,-347.8159484863281,33,0,25,176,-2.336378574371338,0.5986804366111755,0.1891452819108963,-0.010467901825904846,0.006771500688046217,-0.021361522376537323,0.9996941089630127
32336.023,-0.07287757843732834,0.005434304475784302,0.6461569666862488,0.26927679777145386,2.8705496788024902,1.097684621810913,-140.86708068847656,25.21541404724121,-178.33221435546875,33,0,25,176,-2.336378574371338,0.5986804366111755,0.1891452819108963,-0.010467901825904846,0.006771500688046217,-0.021361522376537323,0.9996941089630127
32338.007,-0.07287757843732834,0.005434304475784302,0.6461569666862488,0.5019739270210266,3.3025710582733154,0.873603343963623,-130.53550720214844,10.97797966003418,231.98472595214844,76,-21,-9,176,-2.3358137607574463,0.5986737608909607,0.19170616567134857,-0.009211067110300064,0.005134811624884605,-0.010070248506963253,0.9998937249183655
32339.919,-0.06080184131860733,0.03884565085172653,0.5530951023101807,0.4190731942653656,2.20701003074646,0.6152445673942566,-102.23381042480469,8.178959846496582,494.9855651855469,76,-21,-9,176,-2.3358137607574463,0.5986737608909607,0.19170616567134857,-0.009211067110300064,0.005134811624884605,-0.010070248506963253,0.9998937249183655
32341.905,-0.06022844463586807,0.04322005435824394,0.5856379270553589,0.06743393838405609,0.1950196921825409,0.5595853924751282,-72.28461456298828,16.601099014282227,427.1868896484375,76,-21,-9,176,-2.3371732234954834,0.5985662937164307,0.19384130835533142,-0.018704481422901154,0.006000293884426355,-0.019198691472411156,0.9996227622032166
32343.882,-0.06046995520591736,0.04293215274810791,0.59518963098526,-0.46768519282341003,-1.5957958698272705,0.7257514595985413,-45.78779220581055,15.406556129455566,149.53318786621094,76,-21,-9,176,-2.3371732234954834,0.5985662937164307,0.19384130835533142,-0.018704481422901154,0.006000293884426355,-0.019198691472411156,0.9996227622032166
32345.91,-0.06046995520591736,0.04293215274810791,0.59518963098526,-0.886308491230011,-2.6991734504699707,0.9928637146949768,-11.799826622009277,3.5879452228546143,-126.96419525146484,76,-21,-9,176,-2.337557554244995,0.5984094142913818,0.1959734708070755,-0.02529653161764145,0.005263939034193754,-0.023864958435297012,0.9993813037872314
32347.913,-0.06073009595274925,0.042683396488428116,0.6046557426452637,-0.8477838039398193,-3.1409502029418945,1.2844266891479492,37.133392333984375,-2.2849152088165283,-305.0237731933594,76,0,6,176,-2.337557554244995,0.5984094142913818,0.1959734708070755,-0.02529653161764145,0.005263939034193754,-0.023864958435297012,0.9993813037872314
32349.823,-0.06273038685321808,0.04122535139322281,0.6047834157943726,-0.30503788590431213,-2.660783052444458,1.5064853429794312,81.21733093261719,-2.844348430633545,-420.46966552734375,76,0,6,176,-2.3375816345214844,0.5997201800346375,0.1986263394355774,-0.021097322925925255,0.008249555714428425,-0.018012816086411476,0.9995810985565186
32351.805,-0.06136668473482132,0.045616984367370605,0.604888916015625,0.20713688433170319,-1.1110855340957642,1.5591288805007935,93.5025405883789,-0.4955669939517975,-455.19757080078125,76,0,6,176,-2.3375816345214844,0.5997201800346375,0.1986263394355774,-0.021097322925925255,0.008249555714428425,-0.018012816086411476,0.9995810985565186
32353.795,-0.06136668473482132,0.045616984367370605,0.604888916015625,0.3098405599594116,0.5282411575317383,1.4930071830749512,88.94895935058594,-3.124243974685669,-256.38629150390625,76,0,6,176,-2.337354898452759,0.6004617214202881,0.20162008702754974,-0.01246875710785389,0.00740468967705965,-0.02629091963171959,0.9995492100715637
32355.815,-0.06150788813829422,0.04541356489062309,0.614870548248291,0.09700558334589005,0.9221693873405457,1.3578848838806152,89.20388793945312,-4.383958339691162,152.17095947265625,76,0,6,176,-2.337354898452759,0.6004617214202881,0.20162008702754974,-0.01246875710785389,0.00740468967705965,-0.02629091963171959,0.9995492100715637
32357.817,-0.06150788813829422,0.04541356489062309,0.614870548248291,-0.20725078880786896,0.007301236502826214,1.198983907699585,71.135986328125,15.24632740020752,404.2941589355469,76,-21,4,176,-2.3380393981933594,0.6001356840133667,0.2050456404685974,-0.014404474757611752,0.003712276928126812,-0.038491953164339066,0.9991481900215149
32359.728,-0.06150788813829422,0.04541356489062309,0.614870548248291,-0.37803569436073303,-1.0659300088882446,0.9496749043464661,21.212039947509766,34.5473518371582,209.32298278808594,76,-21,4,176,-2.3380393981933594,0.6001356840133667,0.2050456404685974,-0.014404474757611752,0.003712276928126812,-0.038491953164339066,0.9991481900215149
32361.709,-0.060825590044260025,0.05700823292136192,0.6550320386886597,-0.3723294138908386,-1.3919979333877563,0.6323599219322205,-36.234619140625,24.0308895111084,-191.645263671875,76,-21,4,176,-2.338683605194092,0.5992642045021057,0.20717701315879822,-0.016290204599499702,0.004262174945324659,-0.04053616151213646,0.9990361332893372
32363.69,-0.06101406738162041,0.05679736286401749,0.6653019785881042,-0.16393135488033295,-1.0777193307876587,0.498899906873703,-62.04338455200195,-4.021300792694092,-334.6751403808594,76,-21,4,176,-2.338683605194092,0.5992642045021057,0.20717701315879822,-0.016290204599499702,0.004262174945324659,-0.04053616151213646,0.9990361332893372
32365.719,-0.06101406738162041,0.05679736286401749,0.6653019785881042,0.10720575600862503,-0.8747159242630005,0.5381059050559998,-34.59016418457031,-11.879706382751465,-113.08061218261719,76,-21,4,176,-2.3389039039611816,0.5996647477149963,0.20923058688640594,-0.012566790916025639,0.004784049466252327,-0.037194978445768356,0.9992176294326782
32367.741,-0.06120551750063896,0.05659610033035278,0.6754213571548462,-0.011214309372007847,-1.0174040794372559,0.4991077482700348,19.522714614868164,2.467655897140503,173.84547424316406,76,12,6,176,-2.3389039039611816,0.5996647477149963,0.20923058688640594,-0.012566790916025639,0.004784049466252327,-0.037194978445768356,0.9992176294326782
32369.633,-0.06356126070022583,0.04952530190348625,0.6759101748466492,-0.3938703238964081,-0.9656823873519897,0.28239086270332336,43.071006774902344,8.806013107299805,225.305419921875,76,12,6,176,-2.3383889198303223,0.5994378924369812,0.21240606904029846,-0.015932755544781685,0.006321190856397152,-0.027605954557657242,0.9994719624519348
32371.617,-0.061478059738874435,0.05073671042919159,0.6289960741996765,-0.40627461671829224,-0.43638357520103455,0.1434260904788971,14.776484489440918,9.796353340148926,47.54788589477539,76,12,6,176,-2.3383889198303223,0.5994378924369812,0.21240606904029846,-0.015932755544781685,0.006321190856397152,-0.027605954557657242,0.9994719624519348
32373.595,-0.061478059738874435,0.05073671042919159,0.6289960741996765,0.046419475227594376,0.2608543336391449,0.12600867450237274,-43.488773345947266,12.131172180175781,-114.5903549194336,76,12,6,176,-2.3388466835021973,0.5989906787872314,0.21458187699317932,-0.01613449864089489,0.007796287536621094,-0.023310694843530655,0.9995676875114441
32375.624,-0.06160658597946167,0.050588399171829224,0.6391724348068237,0.34756824374198914,0.7661151885986328,0.238364577293396,-96.23725128173828,5.96525239944458,-113.70295715332031,76,12,6,176,-2.3388466835021973,0.5989906787872314,0.21458187699317932,-0.01613449864089489,0.007796287536621094,-0.023310694843530655,0.9995676875114441
32377.636,-0.06160658597946167,0.050588399171829224,0.6391724348068237,0.19443000853061676,1.1270383596420288,0.5511501431465149,-124.77435302734375,-6.809506893157959,-23.48917007446289,76,-4,-15,176,-2.3388466835021973,0.5989906787872314,0.21458187699317932,-0.01613449864089489,0.007796287536621094,-0.023310694843530655,0.9995676875114441
32379.543,-0.05461106076836586,0.06178306043148041,0.6425548195838928,0.0013092634035274386,1.5168030261993408,0.9220917224884033,-128.38536071777344,-11.286548614501953,46.04218292236328,76,-4,-15,176,-2.3390238285064697,0.5987007021903992,0.21629028022289276,-0.016340574249625206,0.01393500529229641,-0.014154938980937004,0.9996691346168518
32381.519,-0.051497932523489,0.06095977500081062,0.5293443202972412,-0.1130647286772728,1.8193180561065674,1.126881718635559,-127.1001205444336,-8.89231014251709,70.57928466796875,98,-4,-15,176,-2.3402209281921387,0.5986358523368835,0.21814915537834167,-0.02683301828801632,0.013654559850692749,-0.013834980316460133,0.9994509816169739
32383.5,-0.049813225865364075,0.0601496621966362,0.48311543464660645,-0.27987903356552124,1.619274377822876,1.0151628255844116,-127.8405532836914,-8.372920036315918,49.4683723449707,98,-4,-15,176,-2.3402209281921387,0.5986358523368835,0.21814915537834167,-0.02683301828801632,0.013654559850692749,-0.013834980316460133,0.9994509816169739
32385.539,-0.049813225865364075,0.0601496621966362,0.48311543464660645,-0.30454033613204956,0.8530305624008179,0.7293298840522766,-115.76081085205078,0.022491654381155968,-28.37244987487793,98,-4,-15,176,-2.3402209281921387,0.5986358523368835,0.21814915537834167,-0.02683301828801632,0.013654559850692749,-0.013834980316460133,0.9994509816169739
32387.539,-0.049813225865364075,0.0601496621966362,0.48311543464660645,0.04597730189561844,0.350069135427475,0.43915441632270813,-88.03510284423828,6.516154766082764,-153.7991485595703,98,27,-26,176,-2.339064598083496,0.5984992384910583,0.22125832736492157,-0.033296190202236176,0.017581084743142128,-0.015785539522767067,0.9991662502288818
32389.442,-0.03850002586841583,0.052277665585279465,0.4927617311477661,0.5377140045166016,0.6160573363304138,0.18664683401584625,-46.977962493896484,0.1416022628545761,-237.18270874023438,98,27,-26,176,-2.339064598083496,0.5984992384910583,0.22125832736492157,-0.033296190202236176,0.017581084743142128,-0.015785539522767067,0.9991662502288818
32391.423,-0.03850002586841583,0.052277665585279465,0.4927617311477661,0.7090947031974792,1.0576446056365967,0.09410140663385391,6.77730655670166,-5.6901655197143555,-179.91897583007812,98,27,-26,176,-2.3407533168792725,0.5985075831413269,0.2226816564798355,-0.032352250069379807,0.009835338220000267,-0.02888624370098114,0.9990106821060181
32393.413,-0.03720598295331001,0.053520478308200836,0.46706879138946533,0.5175156593322754,0.8351172804832458,0.31990277767181396,65.65647888183594,0.7823004126548767,-36.24223709106445,98,27,-26,176,-2.3407533168792725,0.5985075831413269,0.2226816564798355,-0.032352250069379807,0.009835338220000267,-0.02888624370098114,0.9990106821060181
32395.432,-0.03720598295331001,0.053520478308200836,0.46706879138946533,0.2894357740879059,0.3284973204135895,0.7835085988044739,106.51239776611328,10.988791465759277,39.446495056152344,98,27,-26,176,-2.341033935546875,0.5990040302276611,0.22476908564567566,-0.030722005292773247,0.010116172023117542,-0.04146047681570053,0.9986165165901184
32397.435,-0.03745502978563309,0.05323115736246109,0.4772637188434601,0.21230292320251465,0.21874219179153442,1.2549241781234741,124.31871032714844,14.181879043579102,-23.9095401763916,98,-10,9,176,-2.341033935546875,0.5990040302276611,0.22476908564567566,-0.030722005292773247,0.010116172023117542,-0.04146047681570053,0.9986165165901184
32399.345,-0.04006002098321915,0.048927828669548035,0.4791172444820404,0.2284918576478958,0.3998035490512848,1.5966893434524536,129.79791259765625,16.45086669921875,-86.53610229492188,98,-10,9,176,-2.3418781757354736,0.5995627641677856,0.22606605291366577,-0.02548174187541008,0.00966472364962101,-0.05580516532063484,0.9980696439743042
32401.327,-0.04033689200878143,0.04875371977686882,0.4890078902244568,0.2100919634103775,0.35611212253570557,1.6839059591293335,121.68584442138672,14.97870922088623,-17.589649200439453,98,-10,9,176,-2.3418781757354736,0.5995627641677856,0.22606605291366577,-0.02548174187541008,0.00966472364962101,-0.05580516532063484,0.9980696439743042
32403.318,-0.03879302367568016,0.055816687643527985,0.4767322540283203,0.19305233657360077,0.3359425961971283,1.4496999979019165,89.56141662597656,2.754700183868408,69.77447509765625,98,-10,9,176,-2.341586112976074,0.6008402109146118,0.2287987619638443,-0.02174816094338894,0.008797390386462212,-0.04875950887799263,0.9985349774360657
32405.337,-0.039023783057928085,0.055776193737983704,0.4871930480003357,0.23526769876480103,0.9381837248802185,0.930552065372467,35.89533996582031,-7.766781806945801,58.19020080566406,98,-10,9,176,-2.341586112976074,0.6008402109146118,0.2287987619638443,-0.02174816094338894,0.008797390386462212,-0.04875950887799263,0.9985349774360657
32407.351,-0.039023783057928085,0.055776193737983704,0.4871930480003357,0.3139464557170868,1.7807446718215942,0.39613425731658936,-1.435497522354126,-0.5248587131500244,66.2563247680664,98,-21,-4,176,-2.3414549827575684,0.6019178628921509,0.23037022352218628,-0.018348675221204758,0.009755350649356842,-0.032734792679548264,0.9992480278015137
32409.25,-0.039023783057928085,0.055776193737983704,0.4871930480003357,0.3326055407524109,1.8928837776184082,0.17382587492465973,-6.9134416580200195,13.793867111206055,222.3134002685547,98,-21,-4,176,-2.3414549827575684,0.6019178628921509,0.23037022352218628,-0.018348675221204758,0.009755350649356842,-0.032734792679548264,0.9992480278015137
32411.232,-0.037060435861349106,0.06558787077665329,0.4960304796695709,0.31277814507484436,1.187605381011963,0.3403661847114563,-4.51417875289917,17.260509490966797,376.55908203125,98,-21,-4,176,-2.341082811355591,0.6022998094558716,0.23221313953399658,-0.01862526126205921,0.013223197311162949,-0.017920419573783875,0.9995784759521484
32413.212,-0.035832930356264114,0.07019315659999847,0.49070918560028076,0.26558491587638855,0.28685417771339417,0.7632655501365662,-11.298782348632812,11.675971984863281,347.67572021484375,98,-21,-4,176,-2.341082811355591,0.6022998094558716,0.23221313953399658,-0.01862526126205921,0.013223197311162949,-0.017920419573783875,0.9995784759521484
32415.241,-0.035832930356264114,0.07019315659999847,0.49070918560028076,0.11488985270261765,-0.2507968544960022,1.208686113357544,-22.733205795288086,6.826846122741699,191.0660400390625,98,-21,-4,176,-2.3427112102508545,0.6029403209686279,0.23319056630134583,-0.02290671318769455,0.012700226157903671,-0.002212339546531439,0.9996544718742371
32417.243,-0.03607107326388359,0.07026593387126923,0.5008841156959534,-0.17261554300785065,-0.4242211878299713,1.5606924295425415,-25.7533016204834,5.437332630157471,61.384002685546875,98,-5,4,176,-2.3427112102508545,0.6029403209686279,0.23319056630134583,-0.02290671318769455,0.012700226157903671,-0.002212339546531439,0.9996544718742371
32419.156,-0.03668135032057762,0.0742134228348732,0.5006764531135559,-0.41412943601608276,-0.3920174241065979,1.70779287815094,-16.328248977661133,4.647029399871826,-8.115365028381348,98,-5,4,176,-2.3419535160064697,0.6047995090484619,0.23589307069778442,-0.01455373503267765,0.01083033811300993,-0.013396157883107662,0.9997457265853882
32421.136,-0.03687519207596779,0.07438845187425613,0.5108031034469604,-0.37763842940330505,-0.10312534123659134,1.6574560403823853,3.9067845344543457,8.256498336791992,-78.66621398925781,98,-5,4,176,-2.3419535160064697,0.6047995090484619,0.23589307069778442,-0.01455373503267765,0.01083033811300993,-0.013396157883107662,0.9997457265853882
32423.124,-0.03552927449345589,0.07932959496974945,0.5276349186897278,-0.10020747780799866,0.2595072090625763,1.3391764163970947,33.19815444946289,16.04187774658203,-112.51708221435547,98,-5,4,176,-2.3409173488616943,0.6055393218994141,0.2401224672794342,-0.018557948991656303,0.006212906446307898,-0.0083346301689744,0.9997738003730774
32425.146,-0.035663437098264694,0.07954736053943634,0.5383280515670776,0.16316352784633636,0.11184607446193695,0.9188922047615051,68.39366912841797,22.63344955444336,-29.62961196899414,121,-5,4,176,-2.3409173488616943,0.6055393218994141,0.2401224672794342,-0.018557948991656303,0.006212906446307898,-0.0083346301689744,0.9997738003730774
32427.153,-0.03390705585479736,0.07682200521230698,0.4099917709827423,0.1103728711605072,-0.6604310274124146,0.6795777678489685,85.82630920410156,23.538000106811523,101.06866455078125,121,-20,-8,176,-2.3409173488616943,0.6055393218994141,0.2401224672794342,-0.018557948991656303,0.006212906446307898,-0.0083346301689744,0.9997738003730774
32429.059,-0.03390705585479736,0.07682200521230698,0.4099917709827423,-0.20505066215991974,-1.5674996376037598,0.5897069573402405,71.69264221191406,17.97867774963379,94.31929016113281,121,-20,-8,176,-2.342085123062134,0.6060724258422852,0.24024555087089539,-0.01933472603559494,0.012459388934075832,-0.019153837114572525,0.9995520114898682
32431.05,-0.02909722365438938,0.08075138181447983,0.41896727681159973,-0.3693554401397705,-2.0411102771759033,0.5880231857299805,48.53791809082031,15.838727951049805,-86.35893249511719,121,-20,-8,176,-2.342085123062134,0.6060724258422852,0.24024555087089539,-0.01933472603559494,0.012459388934075832,-0.019153837114572525,0.9995520114898682
32433.021,-0.02819220721721649,0.08567455410957336,0.42595726251602173,-0.19467206299304962,-1.9250411987304688,0.6716035604476929,38.50076675415039,25.392919540405273,-240.06654357910156,121,-20,-8,176,-2.3428454399108887,0.6063970327377319,0.24184173345565796,-0.013558114878833294,0.009184314869344234,-0.03201312944293022,0.9993533492088318
32435.061,-0.02819220721721649,0.08567455410957336,0.42595726251602173,0.0890842080116272,-1.5249258279800415,0.8301882147789001,47.514732360839844,35.339271545410156,-181.32994079589844,121,-20,-8,176,-2.3428454399108887,0.6063970327377319,0.24184173345565796,-0.013558114878833294,0.009184314869344234,-0.03201312944293022,0.9993533492088318
32437.059,-0.02819220721721649,0.08567455410957336,0.42595726251602173,0.1932995766401291,-1.236348271369934,1.0530279874801636,64.32115936279297,30.3096923828125,42.15085220336914,121,-26,4,176,-2.342583179473877,0.6074016094207764,0.2438756823539734,-0.012359419837594032,0.014113519340753555,-0.025478817522525787,0.9994993209838867
32438.972,-0.027500996366143227,0.09450440108776093,0.4342760145664215,0.06200153008103371,-1.210031509399414,1.3179787397384644,70.58651733398438,16.395620346069336,200.76690673828125,121,-26,4,176,-2.3430356979370117,0.6075670123100281,0.24530701339244843,-0.011420538648962975,0.015061468817293644,-0.020022239536046982,0.9996208548545837
32440.948,-0.026390181854367256,0.09817329049110413,0.4367942810058594,-0.08408588916063309,-1.330567479133606,1.5415953397750854,62.75871658325195,12.590375900268555,184.75193786621094,121,-26,4,176,-2.3430356979370117,0.6075670123100281,0.24530701339244843,-0.011420538648962975,0.015061468817293644,-0.020022239536046982,0.9996208548545837
32442.926,-0.026390181854367256,0.09817329049110413,0.4367942810058594,-0.19778203964233398,-1.5220041275024414,1.520529866218567,49.50423049926758,22.17515754699707,116.86289978027344,121,-26,4,176,-2.3430356979370117,0.6075670123100281,0.24530701339244843,-0.011420538648962975,0.015061468817293644,-0.020022239536046982,0.9996208548545837
32444.954,-0.026390181854367256,0.09817329049110413,0.4367942810058594,-0.39526474475860596,-1.6665889024734497,1.226662516593933,32.38328170776367,27.873302459716797,96.11189270019531,121,-26,4,176,-2.342494487762451,0.6076381206512451,0.24820850789546967,-0.011227133683860302,0.019126996397972107,-0.009163577109575272,0.9997121095657349
32446.982,-0.026539433747529984,0.09841221570968628,0.4474278688430786,-0.49291476607322693,-1.6138237714767456,0.8153855800628662,15.988570213317871,23.708112716674805,75.75884246826172,121,1,6,176,-2.342494487762451,0.6076381206512451,0.24820850789546967,-0.011227133683860302,0.019126996397972107,-0.009163577109575272,0.9997121095657349
32448.867,-0.026539433747529984,0.09841221570968628,0.4474278688430786,-0.2838239371776581,-1.236119270324707,0.44284236431121826,4.708632469177246,15.17328929901123,36.765464782714844,121,1,6,176,-2.34238862991333,0.6073117256164551,0.2510029673576355,-0.007983212359249592,0.013224899768829346,-0.006025583948940039,0.999862551689148
32450.858,-0.027307968586683273,0.09518180042505264,0.45842984318733215,0.0850517526268959,-0.6114805936813354,0.08922317624092102,-4.60013484954834,14.386380195617676,25.543262481689453,121,1,6,176,-2.34238862991333,0.6073117256164551,0.2510029673576355,-0.007983212359249592,0.013224899768829346,-0.006025583948940039,0.999862551689148
32452.831,-0.025235962122678757,0.09793398529291153,0.4614700973033905,0.13237735629081726,-0.06329558044672012,-0.15487532317638397,-18.218725204467773,19.53174591064453,22.354328155517578,121,1,6,176,-2.3424506187438965,0.6069498062133789,0.2529720366001129,-0.007848585024476051,0.013891697861254215,0.0013596916105598211,0.9998718500137329
32454.859,-0.025385521352291107,0.09807198494672775,0.4726210832595825,-0.19093069434165955,0.2711905837059021,-0.16742458939552307,-37.60519790649414,13.532187461853027,-32.6619758605957,121,1,6,176,-2.3424506187438965,0.6069498062133789,0.2529720366001129,-0.007848585024476051,0.013891697861254215,0.0013596916105598211,0.9998718500137329
32456.861,-0.025385521352291107,0.09807198494672775,0.4726210832595825,-0.276900053024292,0.6607541441917419,0.02421204000711441,-57.6845703125,3.3958702087402344,-66.35603332519531,121,8,2,176,-2.3428046703338623,0.6063591241836548,0.25324925780296326,-0.00908296275883913,0.021879520267248154,0.0053278421983122826,0.9997052550315857
32458.773,-0.025533784180879593,0.09629955887794495,0.4832158386707306,-0.008038565516471863,1.0675708055496216,0.30659347772598267,-74.94646453857422,2.094289779663086,12.855806350708008,121,8,2,176,-2.3428046703338623,0.6063591241836548,0.25324925780296326,-0.00908296275883913,0.021879520267248154,0.0053278421983122826,0.9997052550315857
32460.753,-0.025533784180879593,0.09629955887794495,0.4832158386707306,0.04452064260840416,1.0786833763122559,0.6344154477119446,-83.3371810913086,10.231752395629883,115.32073211669922,121,8,2,176,-2.3427534103393555,0.6067662239074707,0.25482121109962463,-0.01665716990828514,0.024936974048614502,0.0030426494777202606,0.9995456337928772
32462.735,-0.02453702874481678,0.09407296776771545,0.403160035610199,-0.29895928502082825,0.6903278231620789,1.0183863639831543,-87.48338317871094,12.16230583190918,85.67044067382812,121,8,2,176,-2.3427534103393555,0.6067662239074707,0.25482121109962463,-0.01665716990828514,0.024936974048614502,0.0030426494777202606,0.9995456337928772
32464.773,-0.02453702874481678,0.09407296776771545,0.403160035610199,-0.42526912689208984,0.38099217414855957,1.3346489667892456,-90.15582275390625,0.8263340592384338,-125.01049041748047,121,8,2,176,-2.3442468643188477,0.6060560345649719,0.2568882703781128,-0.018196256831288338,0.017940951511263847,-0.006993680261075497,0.9996489882469177
32466.775,-0.02453702874481678,0.09407296776771545,0.403160035610199,-0.045240454375743866,0.597815215587616,1.3678791522979736,-93.5304946899414,-9.911759376525879,-351.69793701171875,121,6,3,176,-2.3442468643188477,0.6060560345649719,0.2568882703781128,-0.018196256831288338,0.017940951511263847,-0.006993680261075497,0.9996489882469177
32468.684,-0.025743411853909492,0.09627971798181534,0.41429173946380615,0.11239573359489441,1.1673568487167358,1.2122843265533447,-89.57926177978516,-10.029885292053223,-363.71978759765625,121,6,3,176,-2.3444933891296387,0.6063021421432495,0.2581464946269989,-0.02011539228260517,0.01823042519390583,-0.016374841332435608,0.9994973540306091
32470.658,-0.025237472727894783,0.09293227642774582,0.3155757486820221,-0.26826387643814087,1.6971099376678467,0.9619015455245972,-70.78031921386719,-8.007208824157715,-153.18341064453125,144,6,3,176,-2.3444933891296387,0.6063021421432495,0.2581464946269989,-0.02011539228260517,0.01823042519390583,-0.016374841332435608,0.9994973540306091
32472.639,-0.022202979773283005,0.09522005170583725,0.3313734531402588,-0.43665745854377747,1.971551775932312,0.6281893253326416,-40.906532287597656,-5.5228447914123535,48.21030044555664,144,6,3,176,-2.343881130218506,0.6064016819000244,0.2604615092277527,-0.02208726294338703,0.019936954602599144,-0.025849319994449615,0.999222993850708
32474.668,-0.02231431007385254,0.09509702771902084,0.3417811095714569,-0.00648978678509593,1.8280491828918457,0.34224733710289,0.4994111955165863,2.6119015216827393,107.47570037841797,144,6,3,176,-2.343881130218506,0.6064016819000244,0.2604615092277527,-0.02208726294338703,0.019936954602599144,-0.025849319994449615,0.999222993850708
32476.679,-0.02231431007385254,0.09509702771902084,0.3417811095714569,0.36030641198158264,1.2691903114318848,0.281040221452713,41.698612213134766,11.734485626220703,96.83732604980469,144,5,3,176,-2.3435792922973633,0.6068484783172607,0.26229432225227356,-0.025784851983189583,0.019282754510641098,-0.03613332659006119,0.9988282322883606
32478.581,-0.02231431007385254,0.09509702771902084,0.3417811095714569,0.24732248485088348,0.3876294791698456,0.5377238988876343,75.2647933959961,11.167505264282227,45.35860061645508,144,5,3,176,-2.3435792922973633,0.6068484783172607,0.26229432225227356,-0.025784851983189583,0.019282754510641098,-0.03613332659006119,0.9988282322883606
32480.567,-0.022976040840148926,0.08992445468902588,0.35284072160720825,0.02266819402575493,-0.46583402156829834,0.9144963026046753,101.64772033691406,-2.070564031600952,-40.99156188964844,144,5,3,176,-2.3435792922973633,0.6068484783172607,0.26229432225227356,-0.025784851983189583,0.019282754510641098,-0.03613332659006119,0.9988282322883606
32482.543,-0.021243369206786156,0.09155120700597763,0.3129936456680298,-0.0606306716799736,-0.6771866679191589,1.071851134300232,116.98933410644531,-9.726978302001953,-93.9552993774414,144,5,3,176,-2.3440651893615723,0.6079217791557312,0.26336926221847534,-0.024122241884469986,0.020109377801418304,-0.03493907302618027,0.9988958835601807
32484.582,-0.021243369206786156,0.09155120700597763,0.3129936456680298,-0.09636924415826797,-0.04480499401688576,0.9156014323234558,114.95185089111328,-5.775302886962891,-67.23268127441406,144,5,3,176,-2.3440651893615723,0.6079217791557312,0.26336926221847534,-0.024122241884469986,0.020109377801418304,-0.03493907302618027,0.9988958835601807
32486.593,-0.021243369206786156,0.09155120700597763,0.3129936456680298,-0.052600547671318054,1.046393871307373,0.7561376690864563,99.03093719482422,0.804591715335846,3.8059232234954834,144,-12,8,176,-2.3450350761413574,0.6089954376220703,0.26390916109085083,-0.014317280612885952,0.01999291032552719,-0.025479596108198166,0.9993728399276733
32488.493,-0.024050047621130943,0.08949724584817886,0.3243289589881897,0.14375457167625427,1.9016655683517456,0.7256045937538147,83.30335235595703,5.957089900970459,75.15059661865234,144,-12,8,176,-2.3450350761413574,0.6089954376220703,0.26390916109085083,-0.014317280612885952,0.01999291032552719,-0.025479596108198166,0.9993728399276733
32490.466,-0.024050047621130943,0.08949724584817886,0.3243289589881897,0.31560081243515015,2.2164406776428223,0.7882069945335388,58.3475341796875,3.3911514282226562,98.16584777832031,144,-12,8,176,-2.345716714859009,0.6105247139930725,0.26584506034851074,-0.009706759825348854,0.015625132247805595,-0.012377958744764328,0.9997541904449463
32492.448,-0.021586433053016663,0.093700110912323,0.3205200433731079,0.3359851539134979,2.019258499145508,0.9014498591423035,22.93486785888672,-15.20763874053955,18.71968650817871,144,-12,8,176,-2.345627546310425,0.6112672686576843,0.26718392968177795,-0.008926010690629482,0.014065228402614594,-0.011226697824895382,0.9997982382774353
32494.477,-0.021747641265392303,0.09402944892644882,0.33162006735801697,0.20945575833320618,1.4129220247268677,1.1205307245254517,3.7464849948883057,-31.242713928222656,-55.1224479675293,144,-12,8,176,-2.345627546310425,0.6112672686576843,0.26718392968177795,-0.008926010690629482,0.014065228402614594,-0.011226697824895382,0.9997982382774353
32496.497,-0.021747641265392303,0.09402944892644882,0.33162006735801697,0.03833935037255287,0.5664284229278564,1.307092547416687,11.342167854309082,-22.950490951538086,3.0770931243896484,144,-6,-1,176,-2.345627546310425,0.6112672686576843,0.26718392968177795,-0.008926010690629482,0.014065228402614594,-0.011226697824895382,0.9997982382774353
32498.389,-0.021747641265392303,0.09402944892644882,0.33162006735801697,-0.09671040624380112,-0.3196450173854828,1.3392043113708496,32.86697769165039,-2.203603744506836,73.27454376220703,144,-6,-1,176,-2.3457424640655518,0.6122291088104248,0.2683960795402527,-0.00750342570245266,0.014847061596810818,-0.022118184715509415,0.9996170401573181
32500.381,-0.02266046032309532,0.09610715508460999,0.3423372209072113,-0.162266805768013,-0.9385110139846802,1.3874261379241943,53.39558792114258,3.9407360553741455,-14.847662925720215,144,-6,-1,176,-2.3457424640655518,0.6122291088104248,0.2683960795402527,-0.00750342570245266,0.014847061596810818,-0.022118184715509415,0.9996170401573181
32502.362,-0.019614988937973976,0.09868162125349045,0.36823928356170654,-0.0758654996752739,-1.046058177947998,1.4225282669067383,64.88372802734375,-11.191202163696289,-197.2284393310547,144,-6,-1,176,-2.3459372520446777,0.613380491733551,0.270102858543396,-0.0026325536891818047,0.013118951581418514,-0.03453584760427475,0.9993138909339905
32504.392,-0.019614988937973976,0.09868162125349045,0.36823928356170654,0.11308746039867401,-0.6479625701904297,1.452194094657898,65.56736755371094,-27.010059356689453,-280.5464172363281,144,-6,-1,176,-2.3459372520446777,0.613380491733551,0.270102858543396,-0.0026325536891818047,0.013118951581418514,-0.03453584760427475,0.9993138909339905
32506.389,-0.019614988937973976,0.09868162125349045,0.36823928356170654,0.19949215650558472,0.0634281113743782,1.406341552734375,56.1690559387207,-26.43527603149414,-202.57676696777344,144,-25,0,176,-2.345864772796631,0.6148995757102966,0.2724190056324005,-0.0022055082954466343,0.008484866470098495,-0.041347429156303406,0.9991063475608826
32508.295,-0.02066083252429962,0.10619665682315826,0.37811988592147827,0.14145483076572418,0.5387462377548218,1.0957056283950806,48.674503326416016,-8.024070739746094,-50.0572624206543,144,-25,0,176,-2.345864772796631,0.6148995757102966,0.2724190056324005,-0.0022055082954466343,0.008484866470098495,-0.041347429156303406,0.9991063475608826
32510.28,-0.02066083252429962,0.10619665682315826,0.37811988592147827,0.08482784777879715,0.15837961435317993,0.8014155626296997,59.592254638671875,15.358473777770996,126.59147644042969,144,-25,0,176,-2.346346855163574,0.6157896518707275,0.2737503945827484,-0.0009930578526109457,0.009243378415703773,-0.04930508881807327,0.998740553855896
32512.263,-0.01797313615679741,0.10883821547031403,0.41518598794937134,0.09765680879354477,-1.043290138244629,0.7063076496124268,72.42894744873047,27.7091007232666,263.2444763183594,144,-25,0,176,-2.346346855163574,0.6157896518707275,0.2737503945827484,-0.0009930578526109457,0.009243378415703773,-0.04930508881807327,0.998740553855896
32514.299,-0.01797313615679741,0.10883821547031403,0.41518598794937134,0.16731677949428558,-2.322335720062256,0.6062335968017578,62.151588439941406,23.759414672851562,205.1678924560547,155,-25,0,176,-2.346784830093384,0.6162307858467102,0.2745407819747925,0.0013922862708568573,0.01140652783215046,-0.05475588142871857,0.9984337091445923
32516.288,-0.01797313615679741,0.10883821547031403,0.41518598794937134,0.22092323005199432,-2.90871000289917,0.6708683967590332,37.78105926513672,13.041315078735352,-22.298410415649414,155,-2,2,176,-2.346784830093384,0.6162307858467102,0.2745407819747925,0.0013922862708568573,0.01140652783215046,-0.05475588142871857,0.9984337091445923
32518.203,-0.0181075781583786,0.10113437473773956,0.2940407395362854,0.13843315839767456,-2.700502395629883,0.9000100493431091,25.23727035522461,-1.2409902811050415,-181.77920532226562,155,-2,2,176,-2.3461666107177734,0.616891086101532,0.2763907015323639,0.0017960774712264538,0.017005009576678276,-0.03396730497479439,0.9992766380310059
32520.183,-0.018182750791311264,0.10171148180961609,0.30415958166122437,-0.004843377508223057,-2.0875604152679443,1.269622802734375,34.9475212097168,-16.49258041381836,-166.92816162109375,155,-2,2,176,-2.3461666107177734,0.616891086101532,0.2763907015323639,0.0017960774712264538,0.017005009576678276,-0.03396730497479439,0.9992766380310059
32522.164,-0.016885578632354736,0.10203595459461212,0.27851033210754395,-0.20248326659202576,-1.5758928060531616,1.6296182870864868,60.936038970947266,-15.49750804901123,-21.02800941467285,155,-2,2,176,-2.347329616546631,0.6175934076309204,0.27779603004455566,0.0023422888480126858,0.012925352901220322,-0.017650872468948364,0.9997580051422119
32524.194,-0.017043808475136757,0.10263089090585709,0.28955110907554626,-0.427048921585083,-1.3931992053985596,1.7275099754333496,80.56929016113281,0.7464281916618347,152.4980010986328,155,-2,2,176,-2.347329616546631,0.6175934076309204,0.27779603004455566,0.0023422888480126858,0.012925352901220322,-0.017650872468948364,0.9997580051422119
32526.215,-0.017043808475136757,0.10263089090585709,0.28955110907554626,-0.39256274700164795,-1.377873182296753,1.569164514541626,65.36323547363281,6.802040100097656,203.38796997070312,155,-19,1,176,-2.347062349319458,0.6172797083854675,0.2786657214164734,0.0033355422783643007,0.01642490364611149,-0.01248011365532875,0.9997817277908325
32528.105,-0.017043808475136757,0.10263089090585709,0.28955110907554626,-0.10864457488059998,-1.3844853639602661,1.190285086631775,20.422576904296875,-1.0543839931488037,99.96678924560547,155,-19,1,176,-2.347062349319458,0.6172797083854675,0.2786657214164734,0.0033355422783643007,0.01642490364611149,-0.01248011365532875,0.9997817277908325
32530.088,-0.016942648217082024,0.10615348815917969,0.2997409999370575,0.14394952356815338,-1.3332865238189697,0.7321272492408752,-24.78208351135254,-7.378883361816406,-41.45018005371094,155,-19,1,176,-2.346034526824951,0.6171013712882996,0.2811674475669861,0.00554283894598484,0.014212182722985744,-0.019050654023885727,0.9997021555900574
32532.069,-0.014307321049273014,0.10631056129932404,0.35570818185806274,0.20182500779628754,-1.0874395370483398,0.357618510723114,-48.13606262207031,-4.143263339996338,-121.6343994140625,155,-19,1,176,-2.346034526824951,0.6171013712882996,0.2811674475669861,0.00554283894598484,0.014212182722985744,-0.019050654023885727,0.9997021555900574
32534.111,-0.014307321049273014,0.10631056129932404,0.35570818185806274,0.11734334379434586,-0.5997911095619202,0.10725104808807373,-51.337623596191406,-0.15382257103919983,-146.28358459472656,155,-19,1,176,-2.346034526824951,0.6171013712882996,0.2811674475669861,0.00554283894598484,0.014212182722985744,-0.019050654023885727,0.9997021555900574
32536.098,-0.014307321049273014,0.10631056129932404,0.35570818185806274,0.06712538748979568,-0.08523300290107727,0.06550884991884232,-49.09689712524414,0.7707347273826599,-131.5693359375,155,-4,2,176,-2.3466830253601074,0.6169680953025818,0.2824704349040985,0.006291431840509176,0.01329038105905056,-0.02446204423904419,0.999592661857605
32538.022,-0.014760652557015419,0.11050523817539215,0.36727187037467957,0.09158597886562347,0.23997172713279724,0.18063314259052277,-59.59988784790039,9.313640594482422,-26.47428321838379,155,-4,2,176,-2.3466830253601074,0.6169680953025818,0.2824704349040985,0.006291431840509176,0.01329038105905056,-0.02446204423904419,0.999592661857605
32539.995,-0.014760652557015419,0.11050523817539215,0.36727187037467957,0.05942403897643089,0.37126579880714417,0.38506022095680237,-85.57815551757812,22.34343910217285,97.52154541015625,155,-4,2,176,-2.347569704055786,0.6166797280311584,0.282825231552124,-0.0007676982786506414,0.01849466934800148,-0.022059202194213867,0.9995853304862976
32541.972,-0.013923097401857376,0.10772771388292313,0.3057926893234253,0.04516523703932762,0.5208228230476379,0.6123670339584351,-108.3130874633789,21.984994888305664,93.32311248779297,155,-4,2,176,-2.347569704055786,0.6166797280311584,0.282825231552124,-0.0007676982786506414,0.01849466934800148,-0.022059202194213867,0.9995853304862976
