timestamp,stateEstimate.vx,stateEstimate.vy,stateEstimate.vz,acc.x,acc.y,acc.z,gyro.x,gyro.y,gyro.z,range.zrange,mtf02.dpixelX,mtf02.dpixelY,mtf02.flowQual,locSrv.x,locSrv.y,locSrv.z,locSrv.qx,locSrv.qy,locSrv.qz,locSrv.qw
44629.744,0.004325209651142359,-0.006768079474568367,-0.018476825207471848,0.03262951970100403,-0.02455534227192402,0.9989340901374817,0.05710846185684204,-0.020612293854355812,0.012917223386466503,20,0.0,0.0,164,-2.4158318042755127,0.017413470894098282,0.14268015325069427,0.006825325544923544,-0.0001303873141296208,0.009642046876251698,-0.999930202960968
44631.761,0.004325209651142359,-0.006768079474568367,-0.018476825207471848,0.032630160450935364,-0.02522909827530384,0.9993961453437805,-0.08060532063245773,0.014400424435734749,0.026231441646814346,20,0.0,0.0,164,-2.4158318042755127,0.017413470894098282,0.14268015325069427,0.006825325544923544,-0.0001303873141296208,0.009642046876251698,-0.999930202960968
44633.705,0.004751812666654587,-0.007100870367139578,-0.018531393259763718,0.03253588452935219,-0.025940388441085815,0.9997531771659851,-0.1651003509759903,0.1363285481929779,0.1834145188331604,20,0.0,0.0,164,-2.4163014888763428,0.01746366359293461,0.14248284697532654,0.007992608472704887,5.403606337495148e-06,0.00850957166403532,-0.9999318718910217
44635.696,0.004546736367046833,-0.006893742363899946,-0.007524985820055008,0.03230850026011467,-0.02640978805720806,0.9999828338623047,-0.20775775611400604,0.22936472296714783,0.24953009188175201,20,0.0,0.0,164,-2.4163014888763428,0.01746366359293461,0.14248284697532654,0.007992608472704887,5.403606337495148e-06,0.00850957166403532,-0.9999318718910217
44637.733,0.004546736367046833,-0.006893742363899946,-0.007524985820055008,0.03208547830581665,-0.026703983545303345,0.9999713897705078,-0.18352989852428436,0.13279996812343597,0.13874590396881104,20,0.0,0.0,164,-2.415767192840576,0.017400143668055534,0.14286495745182037,0.007561562582850456,-0.001086497912183404,0.009296596981585026,-0.9999276399612427
44639.879,0.004374051466584206,-0.006705927196890116,0.0031977961771190166,0.03199567273259163,-0.02666161023080349,0.9998177289962769,-0.14641782641410828,0.10806822031736374,0.019454458728432655,20,0.0,0.0,164,-2.415767192840576,0.017400143668055534,0.14286495745182037,0.007561562582850456,-0.001086497912183404,0.009296596981585026,-0.9999276399612427
44641.66,0.004374051466584206,-0.006705927196890116,0.0031977961771190166,0.03188968077301979,-0.026397166773676872,0.9996456503868103,-0.09742148220539093,0.3354066014289856,0.02377445437014103,20,0.0,0.0,164,-2.415767192840576,0.017400143668055534,0.14286495745182037,0.007561562582850456,-0.001086497912183404,0.009296596981585026,-0.9999276399612427
44643.609,0.0048106056638062,-0.007192729506641626,0.0032610727939754725,0.031867142766714096,-0.0264957956969738,0.9997413158416748,-0.07208120822906494,0.3591790497303009,0.12721356749534607,20,0.0,0.0,164,-2.4158358573913574,0.017410503700375557,0.14264164865016937,0.007056256756186485,-0.00015692164015490562,0.009427124634385109,-0.999930739402771
44645.598,0.0046081095933914185,-0.006981659214943647,0.015232141129672527,0.03207002580165863,-0.026953592896461487,1.0001920461654663,-0.027724172919988632,0.0015563463093712926,0.22392018139362335,20,0.0,0.0,164,-2.4158358573913574,0.017410503700375557,0.14264164865016937,0.007056256756186485,-0.00015692164015490562,0.009427124634385109,-0.999930739402771
44647.625,0.0046081095933914185,-0.006981659214943647,0.015232141129672527,0.03235822170972824,-0.027201196178793907,1.0007317066192627,0.19591806828975677,-0.2765029966831207,0.1680578887462616,20,0.0,0.0,164,-2.4158358573913574,0.017410503700375557,0.14264164865016937,0.007056256756186485,-0.00015692164015490562,0.009427124634385109,-0.999930739402771
44649.557,0.003584250807762146,-0.006362614221870899,0.015226650983095169,0.03237525746226311,-0.02676890231668949,1.0011427402496338,0.25894108414649963,-0.1585826426744461,0.09792585670948029,20,0.0,0.0,164,-2.4163360595703125,0.017592960968613625,0.1422070860862732,0.007387101650238037,0.001116018509492278,0.009732268750667572,-0.9999247193336487
44651.575,0.004220872186124325,-0.006703769788146019,-0.013503935188055038,0.03221210092306137,-0.02590033784508705,1.0010476112365723,0.05860719084739685,-0.019349072128534317,0.09520657360553741,20,0.0,0.0,164,-2.4163360595703125,0.017592960968613625,0.1422070860862732,0.007387101650238037,0.001116018509492278,0.009732268750667572,-0.9999247193336487
44653.524,0.004630886018276215,-0.0072274720296263695,-0.013384849764406681,0.03224187716841698,-0.02501072734594345,1.0004359483718872,-0.12952066957950592,-0.08114485442638397,0.08979667723178864,20,0.0,0.0,164,-2.4163360595703125,0.017592960968613625,0.1422070860862732,0.007387101650238037,0.001116018509492278,0.009732268750667572,-0.9999247193336487
44655.495,0.004630886018276215,-0.0072274720296263695,-0.013384849764406681,0.03259309381246567,-0.02431391552090645,0.9998037219047546,-0.18682017922401428,-0.12586161494255066,0.1345681995153427,20,0.0,0.0,164,-2.415771007537842,0.017354119569063187,0.14277485013008118,0.007362426724284887,-0.0010427756933495402,0.009446810930967331,-0.9999277591705322
44657.524,0.004449567291885614,-0.0070372470654547215,-0.00236774911172688,0.032957833260297775,-0.023995794355869293,0.999308705329895,-0.14685404300689697,-0.15816637873649597,0.224594384431839,20,0.0,0.0,164,-2.415771007537842,0.017354119569063187,0.14277485013008118,0.007362426724284887,-0.0010427756933495402,0.009446810930967331,-0.9999277591705322
44659.687,0.004449567291885614,-0.0070372470654547215,-0.00236774911172688,0.03268500789999962,-0.024145666509866714,0.9987197518348694,-0.04341105371713638,-0.14280052483081818,0.22652938961982727,20,0.0,0.0,164,-2.4162747859954834,0.01749817468225956,0.14248737692832947,0.008192651905119419,7.136076601454988e-05,0.00826207920908928,-0.9999323487281799
44661.479,0.004710833076387644,-0.007155836559832096,0.008350984193384647,0.03187349811196327,-0.024537453427910805,0.9982026815414429,0.05476147308945656,0.01232252549380064,0.1665436029434204,20,0.0,0.0,164,-2.4162747859954834,0.01749817468225956,0.14248737692832947,0.008192651905119419,7.136076601454988e-05,0.00826207920908928,-0.9999323487281799
44663.418,0.004710833076387644,-0.007155836559832096,0.008350984193384647,0.03128636255860329,-0.02524929866194725,0.9979739785194397,0.05531519278883934,0.21693693101406097,0.1465993970632553,20,0.0,0.0,164,-2.4162747859954834,0.01749817468225956,0.14248737692832947,0.008192651905119419,7.136076601454988e-05,0.00826207920908928,-0.9999323487281799
44665.398,0.004710833076387644,-0.007155836559832096,0.008350984193384647,0.030929438769817352,-0.0260101780295372,0.9979331493377686,0.024954834952950478,0.31874480843544006,0.12710607051849365,20,0.0,0.0,164,-2.41629695892334,0.01748296432197094,0.14246866106987,0.00796210765838623,8.765498932916671e-06,0.008580446243286133,-0.9999315738677979
44667.435,0.004489296581596136,-0.0069335452280938625,0.02031872235238552,0.03065725974738598,-0.02628551609814167,0.9979122877120972,0.03359678387641907,0.3055862486362457,0.0639597699046135,20,0.0,0.0,164,-2.41629695892334,0.01748296432197094,0.14246866106987,0.00796210765838623,8.765498932916671e-06,0.008580446243286133,-0.9999315738677979
44669.371,0.003779894206672907,-0.0062845018692314625,0.02031237818300724,0.030323451384902,-0.026200396940112114,0.9978910684585571,0.008690468035638332,0.12456867098808289,0.06702017784118652,20,0.0,0.0,164,-2.41629695892334,0.01748296432197094,0.14246866106987,0.00796210765838623,8.765498932916671e-06,0.008580446243286133,-0.9999315738677979
44671.383,0.004744540899991989,-0.007072566542774439,-0.009681256487965584,0.0300204586237669,-0.02601950615644455,0.9979085922241211,-0.039159465581178665,-0.011930891312658787,0.18362301588058472,20,0.0,0.0,164,-2.416283369064331,0.017494795843958855,0.14252763986587524,0.008045199327170849,0.0001313689281232655,0.008355644531548023,-0.9999327659606934
44673.332,0.004744540899991989,-0.007072566542774439,-0.009681256487965584,0.029611123725771904,-0.025827694684267044,0.9978498816490173,-0.07214940339326859,-0.05825141444802284,0.18859320878982544,20,0.0,0.0,164,-2.416283369064331,0.017494795843958855,0.14252763986587524,0.008045199327170849,0.0001313689281232655,0.008355644531548023,-0.9999327659606934
44675.308,0.004744540899991989,-0.007072566542774439,-0.009681256487965584,0.029260871931910515,-0.025865044444799423,0.9977492690086365,-0.150704488158226,-0.07428488880395889,0.12334159016609192,20,0.0,0.0,164,-2.4163167476654053,0.017504878342151642,0.14247730374336243,0.008175000548362732,-2.0976200175937265e-05,0.008152530528604984,-0.9999333620071411
44677.333,0.004535967018455267,-0.006864877883344889,0.0013413600390776992,0.029063435271382332,-0.02606329880654812,0.9976299405097961,-0.0698218047618866,-0.04795197397470474,0.10669146478176117,20,0.0,0.0,164,-2.4163167476654053,0.017504878342151642,0.14247730374336243,0.008175000548362732,-2.0976200175937265e-05,0.008152530528604984,-0.9999333620071411
44679.493,0.004535967018455267,-0.006864877883344889,0.0013413600390776992,0.02894199825823307,-0.026377664878964424,0.9975773096084595,0.022676987573504448,0.05286009982228279,0.1986018270254135,20,0.0,0.0,164,-2.4163167476654053,0.017504878342151642,0.14247730374336243,0.008175000548362732,-2.0976200175937265e-05,0.008152530528604984,-0.9999333620071411
44681.277,0.004535967018455267,-0.006864877883344889,0.0013413600390776992,0.02901943027973175,-0.026847442612051964,0.9976731538772583,0.0071584670804440975,0.2062523514032364,0.17855395376682281,20,0.0,0.0,164,-2.416320323944092,0.017497800290584564,0.1424659639596939,0.00816132128238678,7.84686126280576e-05,0.008236579596996307,-0.9999327659606934
44683.227,0.004441514611244202,-0.007088374346494675,0.01358131505548954,0.029233913868665695,-0.02707521803677082,0.997793436050415,-0.12850145995616913,0.19685079157352448,0.0842924490571022,20,0.0,0.0,164,-2.416320323944092,0.017497800290584564,0.1424659639596939,0.00816132128238678,7.84686126280576e-05,0.008236579596996307,-0.9999327659606934
44685.208,0.004441514611244202,-0.007088374346494675,0.01358131505548954,0.029481181874871254,-0.02684115618467331,0.998254656791687,-0.19380688667297363,-0.03947621211409569,0.08482121676206589,20,0.0,0.0,164,-2.416320323944092,0.017497800290584564,0.1424659639596939,0.00816132128238678,7.84686126280576e-05,0.008236579596996307,-0.9999327659606934
44687.237,0.004441514611244202,-0.007088374346494675,0.01358131505548954,0.029723430052399635,-0.026232870295643806,0.9989854097366333,-0.06645440310239792,-0.272473007440567,0.10668887943029404,20,0.0,0.0,164,-2.4163124561309814,0.01746719516813755,0.14246146380901337,0.007927303202450275,0.00011736237502191216,0.008540182374417782,-0.9999321699142456
44689.169,0.003225186374038458,-0.006249024998396635,0.025551103055477142,0.030009616166353226,-0.025334246456623077,0.9996784925460815,0.20986856520175934,-0.32789310812950134,0.029705611988902092,20,0.0,0.0,164,-2.4163124561309814,0.01746719516813755,0.14246146380901337,0.007927303202450275,0.00011736237502191216,0.008540182374417782,-0.9999321699142456
44691.191,0.00409850524738431,-0.00680521409958601,-0.015295618213713169,0.03031023032963276,-0.024713177233934402,0.9999077916145325,0.30012187361717224,-0.3271174728870392,-0.08398589491844177,20,0.0,0.0,164,-2.4163124561309814,0.01746719516813755,0.14246146380901337,0.007927303202450275,0.00011736237502191216,0.008540182374417782,-0.9999321699142456
44693.137,0.0042639621533453465,-0.00729295564815402,-0.015358290635049343,0.030638491734862328,-0.02461804449558258,0.9998127818107605,0.10792900621891022,-0.24310614168643951,0.0006419600103981793,20,0.0,0.0,164,-2.415790319442749,0.017373695969581604,0.142758309841156,0.0075237322598695755,-0.00105081417132169,0.009302250109612942,-0.9999279379844666
44695.119,0.004070254508405924,-0.007092094514518976,-0.003895702539011836,0.030687907710671425,-0.0248453076928854,0.9998616576194763,-0.04480870068073273,-0.051453929394483566,0.27862071990966797,20,0.0,0.0,164,-2.415790319442749,0.017373695969581604,0.142758309841156,0.0075237322598695755,-0.00105081417132169,0.009302250109612942,-0.9999279379844666
44697.149,0.004070254508405924,-0.007092094514518976,-0.003895702539011836,0.030592303723096848,-0.025078721344470978,0.9999343156814575,-0.1721401810646057,0.1493925303220749,0.41290464997291565,20,0.0,0.0,164,-2.415790319442749,0.017373695969581604,0.142758309841156,0.0075237322598695755,-0.00105081417132169,0.009302250109612942,-0.9999279379844666
44699.3,0.004070254508405924,-0.007092094514518976,-0.003895702539011836,0.030948953703045845,-0.025089237838983536,0.9998389482498169,-0.30349716544151306,0.2127087414264679,0.34937506914138794,20,0.0,0.0,164,-2.416287422180176,0.01747693307697773,0.14247526228427887,0.00800173357129097,-4.924309905618429e-05,0.008338604122400284,-0.9999332427978516
44701.086,0.0038645053282380104,-0.006889793090522289,0.007198234088718891,0.031326498836278915,-0.024931976571679115,0.9998352527618408,-0.21132422983646393,0.004358196631073952,0.28735828399658203,20,0.0,0.0,164,-2.416287422180176,0.01747693307697773,0.14247526228427887,0.00800173357129097,-4.924309905618429e-05,0.008338604122400284,-0.9999332427978516
44703.041,0.004139977507293224,-0.007230980321764946,0.007260566111654043,0.031505391001701355,-0.025002405047416687,0.9997712969779968,0.014076801016926765,-0.23018081486225128,0.1369010955095291,20,0.0,0.0,164,-2.416287422180176,0.01747693307697773,0.14247526228427887,0.00800173357129097,-4.924309905618429e-05,0.008338604122400284,-0.9999332427978516
44705.015,0.004139977507293224,-0.007230980321764946,0.007260566111654043,0.031463585793972015,-0.025470983237028122,0.9993970394134521,0.08485842496156693,-0.3213770091533661,-0.019743137061595917,20,0.0,0.0,164,-2.4162747859954834,0.017456473782658577,0.1425153613090515,0.007941280491650105,0.00010467444371897727,0.008548264391720295,-0.9999319314956665
44707.051,0.0039051498752087355,-0.007001863792538643,0.0197772067040205,0.031190458685159683,-0.025886893272399902,0.9989516139030457,0.07939586788415909,-0.3258116841316223,-0.041714251041412354,20,0.0,0.0,164,-2.4162747859954834,0.017456473782658577,0.1425153613090515,0.007941280491650105,0.00010467444371897727,0.008548264391720295,-0.9999319314956665
44708.98,0.0039051498752087355,-0.007001863792538643,0.0197772067040205,0.03063373640179634,-0.02607128769159317,0.9987550377845764,-0.010899003595113754,-0.14395536482334137,0.10963816940784454,20,0.0,0.0,164,-2.4163217544555664,0.01744404062628746,0.14244738221168518,0.007940779440104961,0.0001547339343233034,0.008582287468016148,-0.9999316930770874
44710.996,0.0038627872709184885,-0.007105731405317783,-0.010736595839262009,0.03009898029267788,-0.026297038421034813,0.9989874362945557,0.0036002243869006634,0.14854827523231506,0.2009335309267044,20,0.0,0.0,164,-2.4163217544555664,0.01744404062628746,0.14244738221168518,0.007940779440104961,0.0001547339343233034,0.008582287468016148,-0.9999316930770874
44712.949,0.0038627872709184885,-0.007105731405317783,-0.010736595839262009,0.030078357085585594,-0.026703843846917152,0.9995519518852234,0.14449439942836761,0.3034645617008209,0.17721354961395264,20,0.0,0.0,164,-2.4163217544555664,0.01744404062628746,0.14244738221168518,0.007940779440104961,0.0001547339343233034,0.008582287468016148,-0.9999316930770874
44714.919,0.0038627872709184885,-0.007105731405317783,-0.010736595839262009,0.030353112146258354,-0.02706116810441017,1.0002140998840332,0.07748519629240036,0.274453341960907,0.1638653576374054,20,0.0,0.0,164,-2.416295289993286,0.017486227676272392,0.14247997105121613,0.007954114116728306,0.00012704891560133547,0.008687890134751797,-0.9999306201934814
44716.956,0.0036455602385103703,-0.006892867852002382,0.0007998827495612204,0.03067035600543022,-0.02725958824157715,1.0008381605148315,-0.06934653222560883,0.013517226092517376,0.1965574026107788,20,0.0,0.0,164,-2.416295289993286,0.017486227676272392,0.14247997105121613,0.007954114116728306,0.00012704891560133547,0.008687890134751797,-0.9999306201934814
44719.125,0.0036455602385103703,-0.006892867852002382,0.0007998827495612204,0.030742106959223747,-0.027228495106101036,1.0008978843688965,0.01722724363207817,-0.2745431959629059,0.2115793377161026,20,0.0,0.0,164,-2.416295289993286,0.017486227676272392,0.14247997105121613,0.007954114116728306,0.00012704891560133547,0.008687890134751797,-0.9999306201934814
44720.904,0.0036455602385103703,-0.006892867852002382,0.0007998827495612204,0.03031814470887184,-0.02704182267189026,1.0005395412445068,0.20562675595283508,-0.3235422968864441,0.09023328125476837,20,0.0,0.0,164,-2.416297435760498,0.017471658065915108,0.14251133799552917,0.008031093515455723,-5.7667737564770505e-05,0.008291180245578289,-0.9999334812164307
44722.844,0.003710227319970727,-0.007295077200978994,0.0121082728728652,0.02997172623872757,-0.02652330882847309,1.0004799365997314,0.16725143790245056,-0.27106112241744995,-0.00901293195784092,20,0.0,0.0,164,-2.416297435760498,0.017471658065915108,0.14251133799552917,0.008031093515455723,-5.7667737564770505e-05,0.008291180245578289,-0.9999334812164307
44724.824,0.003710227319970727,-0.007295077200978994,0.0121082728728652,0.030030803754925728,-0.02584030292928219,1.0007433891296387,0.03983060270547867,-0.12775291502475739,0.10307683795690536,20,0.0,0.0,164,-2.4162890911102295,0.01743893139064312,0.14252176880836487,0.007795713841915131,8.694145071785897e-05,0.008727198466658592,-0.9999315738677979
44726.854,0.0034686382859945297,-0.00706428661942482,0.02498777024447918,0.030331697314977646,-0.025237636640667915,1.0008925199508667,0.055160023272037506,0.1479693502187729,0.2915637493133545,20,0.0,0.0,164,-2.4162890911102295,0.01743893139064312,0.14252176880836487,0.007795713841915131,8.694145071785897e-05,0.008727198466658592,-0.9999315738677979
44728.792,0.0034686382859945297,-0.00706428661942482,0.02498777024447918,0.030618863180279732,-0.024931536987423897,1.000731348991394,-0.04622825235128403,0.24130196869373322,0.292450875043869,20,0.0,0.0,164,-2.4162890911102295,0.01743893139064312,0.14252176880836487,0.007795713841915131,8.694145071785897e-05,0.008727198466658592,-0.9999315738677979
44730.807,0.0034686382859945297,-0.00706428661942482,0.02498777024447918,0.03092089854180813,-0.02493823878467083,1.0003292560577393,-0.159597247838974,0.06914226710796356,0.04784144088625908,20,0.0,0.0,164,-2.4163365364074707,0.017487000674009323,0.14241209626197815,0.00772226182743907,0.00018708068819250911,0.008661475032567978,-0.9999327063560486
44732.747,0.003839575219899416,-0.007175686303526163,-0.007453588303178549,0.031458623707294464,-0.02501923404633999,1.000074863433838,-0.08263435959815979,-0.059052977710962296,0.024058585986495018,20,0.0,0.0,164,-2.4163365364074707,0.017487000674009323,0.14241209626197815,0.00772226182743907,0.00018708068819250911,0.008661475032567978,-0.9999327063560486
44734.728,0.003839575219899416,-0.007175686303526163,-0.007453588303178549,0.03176358714699745,-0.024987775832414627,0.9999744296073914,0.02575763501226902,-0.014971802942454815,0.3017880320549011,20,0.0,0.0,164,-2.4163365364074707,0.017487000674009323,0.14241209626197815,0.00772226182743907,0.00018708068819250911,0.008661475032567978,-0.9999327063560486
44736.759,0.003839575219899416,-0.007175686303526163,-0.007453588303178549,0.0315723679959774,-0.02481568045914173,0.9998874068260193,0.034971363842487335,0.017652809619903564,0.4106941521167755,20,0.0,0.0,164,-2.416335105895996,0.017456689849495888,0.14241953194141388,0.00788594875484705,9.557876182952896e-05,0.008530553430318832,-0.999932587146759
44738.918,0.003603997640311718,-0.006957582198083401,0.004642229527235031,0.03125552833080292,-0.024465549737215042,0.9997978806495667,0.06693575531244278,0.12810339033603668,0.24070386588573456,20,0.0,0.0,164,-2.416335105895996,0.017456689849495888,0.14241953194141388,0.00788594875484705,9.557876182952896e-05,0.008530553430318832,-0.999932587146759
44740.717,0.003603997640311718,-0.006957582198083401,0.004642229527235031,0.0310247540473938,-0.024113668128848076,0.9995626211166382,0.09074442088603973,0.2096186876296997,0.15910090506076813,20,0.0,0.0,164,-2.416335105895996,0.017456689849495888,0.14241953194141388,0.00788594875484705,9.557876182952896e-05,0.008530553430318832,-0.999932587146759
44742.651,0.003603997640311718,-0.006957582198083401,0.004642229527235031,0.03094031661748886,-0.024070633575320244,0.9991021752357483,0.18871833384037018,0.13805153965950012,0.11139427870512009,20,0.0,0.0,164,-2.4163413047790527,0.017474038526415825,0.1424441933631897,0.00799794215708971,8.133532537613064e-05,0.008507734164595604,-0.999931812286377
44744.642,0.0036934269592165947,-0.007037643808871508,0.01836024411022663,0.031105156987905502,-0.02430068328976631,0.9983619451522827,0.05455928295850754,0.01785432919859886,0.10376134514808655,20,0.0,0.0,164,-2.4163413047790527,0.017474038526415825,0.1424441933631897,0.00799794215708971,8.133532537613064e-05,0.008507734164595604,-0.999931812286377
44746.673,0.0036934269592165947,-0.007037643808871508,0.01836024411022663,0.031209677457809448,-0.024497630074620247,0.9975717663764954,-0.24910594522953033,0.01033451035618782,0.036617692559957504,20,0.0,0.0,164,-2.4162871837615967,0.017452169209718704,0.14244931936264038,0.007847820408642292,-3.0253040677052923e-05,0.00868462398648262,-0.9999315142631531
44748.603,0.0034417191054672003,-0.006803223863244057,0.0315362811088562,0.030948849394917488,-0.024770235642790794,0.9972949624061584,-0.20400740206241608,-0.011614884249866009,0.055994972586631775,20,0.0,0.0,164,-2.4162871837615967,0.017452169209718704,0.14244931936264038,0.007847820408642292,-3.0253040677052923e-05,0.00868462398648262,-0.9999315142631531
44750.61,0.0026766308583319187,-0.006096903700381517,0.03152970224618912,0.030442237854003906,-0.02516944892704487,0.9974064826965332,-0.016468914225697517,0.008600602857768536,0.14923688769340515,20,0.0,0.0,164,-2.4162871837615967,0.017452169209718704,0.14244931936264038,0.007847820408642292,-3.0253040677052923e-05,0.00868462398648262,-0.9999315142631531
44752.557,0.0036721108481287956,-0.00671908725053072,-0.013813578523695469,0.02996521070599556,-0.025441467761993408,0.9977375268936157,0.09857223927974701,0.11162035912275314,0.047347500920295715,20,0.0,0.0,164,-2.416294574737549,0.017485765740275383,0.14249160885810852,0.00789252296090126,0.0001692911610007286,0.008678432554006577,-0.9999312162399292
44754.54,0.0037356328684836626,-0.006799128372222185,-0.0014936210354790092,0.02979685179889202,-0.025463026016950607,0.9984405636787415,0.10079395025968552,0.09639133512973785,-0.04577770456671715,20,0.0,0.0,164,-2.416294574737549,0.017485765740275383,0.14249160885810852,0.00789252296090126,0.0001692911610007286,0.008678432554006577,-0.9999312162399292
44756.569,0.0037356328684836626,-0.006799128372222185,-0.0014936210354790092,0.029845748096704483,-0.025576088577508926,0.9992422461509705,0.057224713265895844,0.015319440513849258,0.01119913812726736,20,0.0,0.0,164,-2.416294574737549,0.017485765740275383,0.14249160885810852,0.00789252296090126,0.0001692911610007286,0.008678432554006577,-0.9999312162399292
44758.729,0.0037356328684836626,-0.006799128372222185,-0.0014936210354790092,0.03007849119603634,-0.025577925145626068,0.999635636806488,0.06626660376787186,-0.029972312971949577,0.046172164380550385,20,0.0,0.0,164,-2.4163124561309814,0.01744585856795311,0.1424722522497177,0.007868008688092232,4.0895771235227585e-05,0.008671835996210575,-0.9999314546585083
44760.514,0.0035019346978515387,-0.0065859234891831875,0.010554376989603043,0.03045625425875187,-0.0251450352370739,0.9997248649597168,0.04797326400876045,0.12660744786262512,0.10491906851530075,20,0.0,0.0,164,-2.4163124561309814,0.01744585856795311,0.1424722522497177,0.007868008688092232,4.0895771235227585e-05,0.008671835996210575,-0.9999314546585083
44762.463,0.0037190213333815336,-0.0069891358725726604,0.010515506379306316,0.030887551605701447,-0.02442563697695732,0.9999285936355591,0.004764624871313572,0.35754236578941345,0.16323654353618622,20,0.0,0.0,164,-2.4163124561309814,0.01744585856795311,0.1424722522497177,0.007868008688092232,4.0895771235227585e-05,0.008671835996210575,-0.9999314546585083
44764.442,0.0037190213333815336,-0.0069891358725726604,0.010515506379306316,0.0313243642449379,-0.02396128512918949,0.9997701048851013,-0.08815731853246689,0.3060293197631836,0.17910857498645782,20,0.0,0.0,164,-2.416271209716797,0.017498064786195755,0.14247272908687592,0.008057103492319584,-7.802476829965599e-06,0.008447671309113503,-0.9999319314956665
44766.476,0.003457690356299281,-0.006740199867635965,0.02400728315114975,0.03147672489285469,-0.024127649143338203,0.9991422295570374,-0.14915823936462402,0.15267284214496613,0.20315991342067719,20,0.0,0.0,164,-2.416271209716797,0.017498064786195755,0.14247272908687592,0.008057103492319584,-7.802476829965599e-06,0.008447671309113503,-0.9999319314956665
44768.421,0.003457690356299281,-0.006740199867635965,0.02400728315114975,0.03136269003152847,-0.024492019787430763,0.9987249970436096,-0.002596810460090637,-0.025704026222229004,0.15594317018985748,20,0.0,0.0,164,-2.416271209716797,0.017498064786195755,0.14247272908687592,0.008057103492319584,-7.802476829965599e-06,0.008447671309113503,-0.9999319314956665
44770.443,0.003457690356299281,-0.006740199867635965,0.02400728315114975,0.031118974089622498,-0.024650786072015762,0.998528242111206,0.12085723876953125,0.00497394846752286,0.11080020666122437,20,0.0,0.0,164,-2.416323661804199,0.017565662041306496,0.1422080397605896,0.007111419923603535,0.001138208550401032,0.009915933944284916,-0.9999249577522278
44772.374,0.0037417367566376925,-0.006800911854952574,-0.0093173086643219,0.03103325329720974,-0.024857046082615852,0.9984140396118164,0.06285472959280014,0.18752983212471008,0.17762160301208496,20,0.0,0.0,164,-2.416323661804199,0.017565662041306496,0.1422080397605896,0.007111419923603535,0.001138208550401032,0.009915933944284916,-0.9999249577522278
44774.358,0.0037417367566376925,-0.006800911854952574,-0.0093173086643219,0.03120282292366028,-0.02536163479089737,0.9983368515968323,0.05489280819892883,0.27207380533218384,0.12658263742923737,20,0.0,0.0,164,-2.416323661804199,0.017565662041306496,0.1422080397605896,0.007111419923603535,0.001138208550401032,0.009915933944284916,-0.9999249577522278
44776.378,0.0037417367566376925,-0.006800911854952574,-0.0093173086643219,0.0315096341073513,-0.025706108659505844,0.9982432723045349,0.037496063858270645,0.25976037979125977,0.1038944199681282,20,0.0,0.0,164,-2.4163081645965576,0.017445513978600502,0.14246316254138947,0.007798422127962112,8.239935414167121e-05,0.008751613087952137,-0.9999313950538635
44778.537,0.0035027104895561934,-0.006582597736269236,0.0028949317056685686,0.03191395476460457,-0.025805937126278877,0.9984632134437561,0.06453557312488556,0.15934240818023682,0.023162590339779854,20,0.0,0.0,164,-2.4163081645965576,0.017445513978600502,0.14246316254138947,0.007798422127962112,8.239935414167121e-05,0.008751613087952137,-0.9999313950538635
44780.359,0.0035027104895561934,-0.006582597736269236,0.0028949317056685686,0.03232460096478462,-0.025896772742271423,0.9988191723823547,-0.005514957010746002,-0.12921009957790375,0.0417490117251873,20,0.0,0.0,164,-2.4157118797302246,0.017355376854538918,0.14287419617176056,0.007325354963541031,-0.0012607098324224353,0.009439260698854923,-0.9999278783798218
44782.27,0.0036893184296786785,-0.006809355691075325,0.014707853086292744,0.03237207233905792,-0.02608710527420044,0.9991080164909363,-0.10903449356555939,-0.3458915650844574,0.17143309116363525,20,0.0,0.0,164,-2.4157118797302246,0.017355376854538918,0.14287419617176056,0.007325354963541031,-0.0012607098324224353,0.009439260698854923,-0.9999278783798218
44784.25,0.0036893184296786785,-0.006809355691075325,0.014707853086292744,0.03203069418668747,-0.026154562830924988,0.9993454813957214,0.016949092969298363,-0.2655028700828552,0.21436582505702972,20,0.0,0.0,164,-2.4157118797302246,0.017355376854538918,0.14287419617176056,0.007325354963541031,-0.0012607098324224353,0.009439260698854923,-0.9999278783798218
44786.276,0.0036893184296786785,-0.006809355691075325,0.014707853086292744,0.031595733016729355,-0.025907430797815323,0.9992955923080444,0.0776505246758461,-0.08217494934797287,0.24983011186122894,20,0.0,0.0,164,-2.4163079261779785,0.01744391769170761,0.14250461757183075,0.007886397652328014,2.5836172426352277e-05,0.0086057772859931,-0.9999319314956665
44788.218,0.003433320438489318,-0.006574511528015137,0.02791273593902588,0.031245557591319084,-0.025523366406559944,0.9988867044448853,0.010550037026405334,0.1385488063097,0.19196531176567078,20,0.0,0.0,164,-2.4163079261779785,0.01744391769170761,0.14250461757183075,0.007886397652328014,2.5836172426352277e-05,0.0086057772859931,-0.9999319314956665
44790.28,0.003433320438489318,-0.006574511528015137,0.02791273593902588,0.03110782988369465,-0.02512517012655735,0.9985217452049255,-0.03492024540901184,0.1904880851507187,0.08834614604711533,20,0.0,0.0,164,-2.4163079261779785,0.01744391769170761,0.14250461757183075,0.007886397652328014,2.5836172426352277e-05,0.0086057772859931,-0.9999319314956665
44792.182,0.003433320438489318,-0.006574511528015137,0.02791273593902588,0.03141646832227707,-0.024772435426712036,0.9983379244804382,-0.10026372969150543,0.08286620676517487,0.17762698233127594,20,0.0,0.0,164,-2.416335105895996,0.017581073567271233,0.14221709966659546,0.007247747387737036,0.0010076516773551702,0.0096678351983428,-0.9999265074729919
44794.155,0.003997110296040773,-0.006787251215428114,-0.006001126486808062,0.03215321525931358,-0.02526761405169964,0.9985809326171875,-0.08489865809679031,0.14719688892364502,-0.031127329915761948,20,0.0,0.0,164,-2.416335105895996,0.017581073567271233,0.14221709966659546,0.007247747387737036,0.0010076516773551702,0.0096678351983428,-0.9999265074729919
44796.188,0.003997110296040773,-0.006787251215428114,-0.006001126486808062,0.032740965485572815,-0.0261493269354105,0.9991536140441895,-0.07395395636558533,0.2642947733402252,-0.7799409031867981,20,0.0,0.0,164,-2.416374683380127,0.017578138038516045,0.14220869541168213,0.007458861917257309,0.0011132638901472092,0.009482522495090961,-0.9999266862869263
44798.349,0.003753828117623925,-0.00656242948025465,0.006080069113522768,0.0336572490632534,-0.027050206437706947,0.9995677471160889,-0.1096322312951088,0.4180620014667511,-1.562817096710205,20,0.0,0.0,164,-2.416374683380127,0.017578138038516045,0.14220869541168213,0.007458861917257309,0.0011132638901472092,0.009482522495090961,-0.9999266862869263
44800.167,0.003753828117623925,-0.00656242948025465,0.006080069113522768,0.03571321815252304,-0.028571518138051033,0.9994121193885803,0.022892003878951073,0.7413021922111511,-2.366828441619873,20,0.0,0.0,164,-2.416374683380127,0.017578138038516045,0.14220869541168213,0.007458861917257309,0.0011132638901472092,0.009482522495090961,-0.9999266862869263
44802.086,0.003753828117623925,-0.00656242948025465,0.006080069113522768,0.03787275776267052,-0.03013467602431774,0.9986880421638489,0.19528307020664215,0.874016523361206,-3.4129068851470947,20,0.0,0.0,164,-2.416374683380127,0.017578138038516045,0.14220869541168213,0.007458861917257309,0.0011132638901472092,0.009482522495090961,-0.9999266862869263
44804.057,0.004343714565038681,-0.007108804304152727,0.00608104607090354,0.039551179856061935,-0.031131984665989876,0.9978514909744263,0.12146229296922684,0.8123510479927063,-4.712506294250488,20,0.0,0.0,164,-2.4162957668304443,0.017465271055698395,0.14248846471309662,0.007880297489464283,2.385761763434857e-05,0.008485878817737103,-0.9999330043792725
44806.085,0.00407930975779891,-0.006864530500024557,0.019532211124897003,0.040455326437950134,-0.03085927478969097,0.9975480437278748,-0.3331470489501953,0.7581707835197449,-5.741714954376221,20,0.0,0.0,164,-2.4162957668304443,0.017465271055698395,0.14248846471309662,0.007880297489464283,2.385761763434857e-05,0.008485878817737103,-0.9999330043792725
44808.018,0.00407930975779891,-0.006864530500024557,0.019532211124897003,0.04113796353340149,-0.029696810990571976,0.9970533847808838,-0.6528066396713257,0.7218316793441772,-6.23274040222168,20,0.0,0.0,164,-2.415797710418701,0.017338786274194717,0.14279554784297943,0.007385574281215668,-0.0010350699303671718,0.009458733722567558,-0.9999274611473083
44810.094,0.0038519783411175013,-0.006649904418736696,0.032544124871492386,0.041730690747499466,-0.0284409299492836,0.9964174032211304,-0.6056440472602844,0.8398135304450989,-5.91492223739624,20,0.0,0.0,164,-2.415797710418701,0.017338786274194717,0.14279554784297943,0.007385574281215668,-0.0010350699303671718,0.009458733722567558,-0.9999274611473083
44811.983,0.003668172052130103,-0.005823330022394657,0.032543402165174484,0.04300382360816002,-0.02706257440149784,0.9957563281059265,-0.37609216570854187,1.1001981496810913,-4.895188331604004,20,0.0,0.0,165,-2.415797710418701,0.017338786274194717,0.14279554784297943,0.007385574281215668,-0.0010350699303671718,0.009458733722567558,-0.9999274611473083
44813.959,0.0019090123241767287,-0.00431048171594739,-0.01786411553621292,0.0453769750893116,-0.02581697888672352,0.9956094622612,-0.19460974633693695,1.298892855644226,-3.7363038063049316,20,0.0,0.0,165,-2.416276216506958,0.017463993281126022,0.1425100415945053,0.007828798145055771,7.795665442245081e-05,0.008701136335730553,-0.9999315142631531
44815.989,0.001677132211625576,-0.0041044303216040134,-0.006411244161427021,0.04746043682098389,-0.023971691727638245,0.9958038330078125,-0.03786861151456833,1.3678644895553589,-2.314775228500366,20,0.0,0.0,165,-2.416276216506958,0.017463993281126022,0.1425100415945053,0.007828798145055771,7.795665442245081e-05,0.008701136335730553,-0.9999315142631531
44818.156,0.001677132211625576,-0.0041044303216040134,-0.006411244161427021,0.047372397035360336,-0.022500794380903244,0.9965230822563171,-0.07149512320756912,1.4073954820632935,-0.8138821721076965,20,0.0,0.0,165,-2.415778160095215,0.017377637326717377,0.14281845092773438,0.007378194946795702,-0.0010556366760283709,0.009311920031905174,-0.999928891658783
44819.972,0.0014759867917746305,-0.00391972903162241,0.004729218780994415,0.045394908636808395,-0.023283110931515694,0.997970700263977,-0.0807185024023056,1.5806125402450562,-0.9272280335426331,20,0.0,0.0,165,-2.415778160095215,0.017377637326717377,0.14281845092773438,0.007378194946795702,-0.0010556366760283709,0.009311920031905174,-0.999928891658783
44821.891,0.0014759867917746305,-0.00391972903162241,0.004729218780994415,0.0433652438223362,-0.024482736364006996,0.9986169338226318,-0.0016985239926725626,1.7665332555770874,-3.0284838676452637,20,0.0,0.0,165,-2.415778160095215,0.017377637326717377,0.14281845092773438,0.007378194946795702,-0.0010556366760283709,0.009311920031905174,-0.999928891658783
44823.874,-0.001297612558118999,-0.0017474232008680701,0.004305858630686998,0.042420078068971634,-0.025555334985256195,0.9993722438812256,-0.09199655055999756,1.9389678239822388,-5.065916061401367,20,0.0,0.0,165,-2.41581130027771,0.017424793913960457,0.1426258087158203,0.006861750967800617,-0.0003420725406613201,0.009716995991766453,-0.9999292492866516
44825.907,-0.0015287777641788125,-0.0015402851859107614,0.016633495688438416,0.042096711695194244,-0.026835758239030838,0.9999654293060303,-0.3344094753265381,2.166663646697998,-5.87448263168335,20,0.0,0.0,165,-2.41581130027771,0.017424793913960457,0.1426258087158203,0.006861750967800617,-0.0003420725406613201,0.009716995991766453,-0.9999292492866516
44827.826,-0.0015287777641788125,-0.0015402851859107614,0.016633495688438416,0.041495777666568756,-0.027622923254966736,1.000165581703186,-0.62722247838974,2.397017002105713,-5.6350507736206055,20,0.0,0.0,165,-2.41581130027771,0.017424793913960457,0.1426258087158203,0.006861750967800617,-0.0003420725406613201,0.009716995991766453,-0.9999292492866516
44829.889,-0.0015287777641788125,-0.0015402851859107614,0.016633495688438416,0.04198925197124481,-0.026837753131985664,0.9999308586120605,-0.5231873989105225,2.305989980697632,-3.839818000793457,20,0.0,0.0,165,-2.4161930084228516,0.01748610846698284,0.14251215755939484,0.00807893741875887,-0.00017521616246085614,0.008307188749313354,-0.9999329447746277
44831.79,-0.0015287777641788125,-0.0015402851859107614,0.016633495688438416,0.04186084866523743,-0.02390402927994728,0.9989795684814453,-0.012465937994420528,2.1017045974731445,0.8043544292449951,20,0.0,0.0,165,-2.4161930084228516,0.01748610846698284,0.14251215755939484,0.00807893741875887,-0.00017521616246085614,0.008307188749313354,-0.9999329447746277
44833.768,-0.0020874114707112312,0.0005006226128898561,-0.013247767463326454,0.03696669638156891,-0.020483549684286118,0.9983387589454651,0.5073626041412354,2.0671722888946533,7.563823223114014,20,0.0,0.0,165,-2.4161930084228516,0.01748610846698284,0.14251215755939484,0.00807893741875887,-0.00017521616246085614,0.008307188749313354,-0.9999329447746277
44835.797,-0.0020874114707112312,0.0005006226128898561,-0.013247767463326454,0.02731957659125328,-0.019252201542258263,0.9985159635543823,0.7377627491950989,2.0366432666778564,13.008116722106934,20,0.0,0.0,165,-2.416264295578003,0.01760314591228962,0.14220762252807617,0.00740063888952136,0.0008208865183405578,0.009508062154054642,-0.9999271035194397
44837.966,-0.002335245255380869,0.0007091626757755876,-0.0021677715703845024,0.019284028559923172,-0.02057730406522751,0.9987134337425232,0.8222042322158813,1.8013449907302856,14.222602844238281,20,0.0,0.0,165,-2.416264295578003,0.01760314591228962,0.14220762252807617,0.00740063888952136,0.0008208865183405578,0.009508062154054642,-0.9999271035194397
44839.795,-0.002335245255380869,0.0007091626757755876,-0.0021677715703845024,0.015561024658381939,-0.02199435792863369,0.9985209107398987,0.751060426235199,1.5770660638809204,11.950815200805664,20,0.0,0.0,165,-2.416264295578003,0.01760314591228962,0.14220762252807617,0.00740063888952136,0.0008208865183405578,0.009508062154054642,-0.9999271035194397
44841.691,-0.002335245255380869,0.0007091626757755876,-0.0021677715703845024,0.012462685815989971,-0.022900162264704704,0.9985273480415344,0.658778190612793,1.5125110149383545,9.471628189086914,20,0.0,0.0,165,-2.4156718254089355,0.017421863973140717,0.14284497499465942,0.007514468394219875,-0.0013009462272748351,0.009390819817781448,-0.9999268651008606
44843.673,-0.005086558870971203,0.0029963841661810875,0.008423801511526108,0.008142831735312939,-0.02460436150431633,0.9987776875495911,0.49695566296577454,1.261454463005066,8.63372802734375,20,0.0,0.0,165,-2.4156718254089355,0.017421863973140717,0.14284497499465942,0.007514468394219875,-0.0013009462272748351,0.009390819817781448,-0.9999268651008606
44845.702,-0.005086558870971203,0.0029963841661810875,0.008423801511526108,0.0034752830397337675,-0.026174116879701614,0.9983618855476379,0.40933939814567566,0.7857433557510376,8.089844703674316,20,0.0,0.0,165,-2.416140556335449,0.017589261755347252,0.1423107087612152,0.007386692333966494,0.0006569388788193464,0.009364587254822254,-0.9999287128448486
44847.634,-0.005344785284250975,0.003209924092516303,0.02034832537174225,-0.0019965111277997494,-0.02673117257654667,0.9982364177703857,0.5029135942459106,0.37107765674591064,6.248351573944092,20,0.0,0.0,165,-2.416140556335449,0.017589261755347252,0.1423107087612152,0.007386692333966494,0.0006569388788193464,0.009364587254822254,-0.9999287128448486
44849.695,-0.005344785284250975,0.003209924092516303,0.02034832537174225,-0.0072334399446845055,-0.027451535686850548,0.9986929297447205,0.4422955811023712,0.0913335382938385,3.7934157848358154,20,0.0,0.0,165,-2.416140556335449,0.017589261755347252,0.1423107087612152,0.007386692333966494,0.0006569388788193464,0.009364587254822254,-0.9999287128448486
44851.602,-0.005344785284250975,0.003209924092516303,0.02034832537174225,-0.01039330568164587,-0.02961285226047039,0.9994248747825623,0.24272529780864716,-0.258698433637619,1.6236215829849243,20,0.0,0.0,165,-2.4162094593048096,0.01755029521882534,0.14228400588035583,0.007243553176522255,0.0007109710131771863,0.009789115749299526,-0.9999256730079651
44853.576,-0.005344785284250975,0.003209924092516303,0.02034832537174225,-0.011038843542337418,-0.03244773671030998,1.0000470876693726,0.09760000556707382,-0.7013265490531921,-0.6480361819267273,20,0.0,0.0,165,-2.4162094593048096,0.01755029521882534,0.14228400588035583,0.007243553176522255,0.0007109710131771863,0.009789115749299526,-0.9999256730079651
44855.606,-0.005880001932382584,0.0042833369225263596,-0.01324448548257351,-0.00847690925002098,-0.03490571305155754,1.0005011558532715,-0.02088947594165802,-0.9239639043807983,-2.897735595703125,20,0.0,0.0,165,-2.4162094593048096,0.01755029521882534,0.14228400588035583,0.007243553176522255,0.0007109710131771863,0.009789115749299526,-0.9999256730079651
44857.766,-0.005880001932382584,0.0042833369225263596,-0.01324448548257351,-0.0017716034781187773,-0.03538339585065842,1.0005133152008057,-0.14861074090003967,-0.8815826773643494,-3.8265063762664795,20,0.0,0.0,165,-2.416259765625,0.017540663480758667,0.14221300184726715,0.0072476910427212715,0.0007727191550657153,0.009662973694503307,-0.999926745891571
44859.598,-0.00612150551751256,0.004478986840695143,-0.0029449514113366604,0.00621176278218627,-0.03311197832226753,0.9999663829803467,-0.25951245427131653,-0.9217746257781982,-2.2338597774505615,20,0.0,0.0,165,-2.416259765625,0.017540663480758667,0.14221300184726715,0.0072476910427212715,0.0007727191550657153,0.009662973694503307,-0.999926745891571
44861.507,-0.00612150551751256,0.004478986840695143,-0.0029449514113366604,0.010337648913264275,-0.032997243106365204,1.000496506690979,-0.09122809022665024,-1.2696927785873413,-0.6230988502502441,20,0.0,0.0,165,-2.416259765625,0.017540663480758667,0.14221300184726715,0.0072476910427212715,0.0007727191550657153,0.009662973694503307,-0.999926745891571
44863.481,-0.008372355252504349,0.006489031948149204,-0.0029691001400351524,0.013912131078541279,-0.033957596868276596,1.0002886056900024,-0.04086859151721001,-1.7248470783233643,-2.7244513034820557,20,0.0,0.0,165,-2.4157509803771973,0.017370501533150673,0.14277087152004242,0.007413260638713837,-0.0009467886411584914,0.00928462389856577,-0.9999289512634277
44865.513,-0.008615301921963692,0.006684592459350824,0.008550219237804413,0.0182635597884655,-0.030666040256619453,0.9983370900154114,-0.12657788395881653,-1.9697060585021973,-4.851261615753174,20,0.0,0.0,165,-2.4157509803771973,0.017370501533150673,0.14277087152004242,0.007413260638713837,-0.0009467886411584914,0.00928462389856577,-0.9999289512634277
44867.446,-0.008615301921963692,0.006684592459350824,0.008550219237804413,0.020349619910120964,-0.02786402590572834,0.9975895881652832,0.02126806415617466,-1.9876426458358765,-2.472618341445923,20,0.0,0.0,165,-2.4157509803771973,0.017370501533150673,0.14277087152004242,0.007413260638713837,-0.0009467886411584914,0.00928462389856577,-0.9999289512634277
44869.493,-0.008863341063261032,0.006880084052681923,0.019666988402605057,0.021804621443152428,-0.02874319814145565,0.9977004528045654,0.21335488557815552,-1.8958696126937866,0.4156774580478668,20,0.0,0.0,165,-2.416224956512451,0.01745654083788395,0.14248229563236237,0.008022977970540524,-0.0002839728840626776,0.008343164809048176,-0.9999330043792725
44871.41,-0.008863341063261032,0.006880084052681923,0.019666988402605057,0.026363883167505264,-0.02799602970480919,0.9983469247817993,0.21306289732456207,-1.8097773790359497,0.6555787920951843,20,0.0,0.0,165,-2.416224956512451,0.01745654083788395,0.14248229563236237,0.008022977970540524,-0.0002839728840626776,0.008343164809048176,-0.9999330043792725
44873.394,-0.01100939977914095,0.008852406404912472,0.019443828612565994,0.030686968937516212,-0.027933210134506226,0.9998460412025452,0.16249091923236847,-1.9918292760849,0.9834551215171814,20,0.0,0.0,165,-2.415864944458008,0.01742791011929512,0.14262326061725616,0.006936287507414818,-8.41787550598383e-05,0.009599217213690281,-0.9999299049377441
44875.414,-0.009673170745372772,0.0076347459107637405,-0.012304013594985008,0.03174448758363724,-0.030644280835986137,1.0013773441314697,0.3090839385986328,-2.2385566234588623,1.526256799697876,20,0.0,0.0,165,-2.415864944458008,0.01742791011929512,0.14262326061725616,0.006936287507414818,-8.41787550598383e-05,0.009599217213690281,-0.9999299049377441
44877.574,-0.009673170745372772,0.0076347459107637405,-0.012304013594985008,0.032398562878370285,-0.02934032492339611,1.000577449798584,0.24837861955165863,-2.284661054611206,2.0018908977508545,20,0.0,0.0,165,-2.415864944458008,0.01742791011929512,0.14262326061725616,0.006936287507414818,-8.41787550598383e-05,0.009599217213690281,-0.9999299049377441
44879.396,-0.009673170745372772,0.0076347459107637405,-0.012304013594985008,0.03221988305449486,-0.023551808670163155,1.0004489421844482,0.2823309004306793,-2.0631585121154785,5.308592319488525,20,0.0,0.0,165,-2.4162750244140625,0.017428124323487282,0.1424892693758011,0.00784735381603241,-0.0001715273392619565,0.008505159988999367,-0.9999330639839172
44881.309,-0.009900689125061035,0.00781862623989582,-0.0025465041399002075,0.030291462317109108,-0.021451056003570557,1.0015052556991577,0.7301169037818909,-1.7894214391708374,9.167935371398926,20,0.0,0.0,165,-2.4162750244140625,0.017428124323487282,0.1424892693758011,0.00784735381603241,-0.0001715273392619565,0.008505159988999367,-0.9999330639839172
44883.289,-0.011993584223091602,0.009757987223565578,-0.0025538778863847256,0.02573731541633606,-0.022987335920333862,1.0022491216659546,0.8689532279968262,-1.7488688230514526,8.494943618774414,20,0.0,0.0,165,-2.4162750244140625,0.017428124323487282,0.1424892693758011,0.00784735381603241,-0.0001715273392619565,0.008505159988999367,-0.9999330639839172
44885.317,-0.011993584223091602,0.009757987223565578,-0.0025538778863847256,0.02018941566348076,-0.0236533023416996,1.0020480155944824,0.541495680809021,-2.0764646530151367,4.309741497039795,20,0.0,0.0,165,-2.4158573150634766,0.01735404133796692,0.14273986220359802,0.00747179938480258,-0.0007765922346152365,0.009323111735284328,-0.9999284148216248
44887.257,-0.012226958759129047,0.009943758137524128,0.008368347771465778,0.015391772612929344,-0.02384706400334835,1.0014194250106812,0.15351572632789612,-2.4433774948120117,0.5012009143829346,20,0.0,0.0,165,-2.4158573150634766,0.01735404133796692,0.14273986220359802,0.00747179938480258,-0.0007765922346152365,0.009323111735284328,-0.9999284148216248
44889.327,-0.012226958759129047,0.009943758137524128,0.008368347771465778,0.013782691210508347,-0.023443587124347687,0.9999083876609802,-0.01944294199347496,-2.4359543323516846,-1.8054158687591553,20,0.0,0.0,165,-2.4158573150634766,0.01735404133796692,0.14273986220359802,0.00747179938480258,-0.0007765922346152365,0.009323111735284328,-0.9999284148216248
44891.22,-0.012226958759129047,0.009943758137524128,0.008368347771465778,0.023393798619508743,-0.023477355018258095,0.9985867738723755,0.17611345648765564,-1.728486180305481,-2.7693450450897217,20,0.0,0.0,165,-2.416282892227173,0.017459914088249207,0.14247378706932068,0.00785465631633997,0.00014245211787056178,0.00845619011670351,-0.9999334812164307
44893.19,-0.013696108013391495,0.011237801983952522,0.01899966038763523,0.04549906402826309,-0.024353547021746635,0.9978455901145935,0.2918567359447479,-1.0721238851547241,-2.1969985961914062,20,0.0,0.0,165,-2.416282892227173,0.017459914088249207,0.14247378706932068,0.00785465631633997,0.00014245211787056178,0.00845619011670351,-0.9999334812164307
44895.23,-0.012591558508574963,0.01051216758787632,-0.02139640413224697,0.060818761587142944,-0.02374720573425293,0.9963129162788391,0.24764660000801086,-2.4516425132751465,2.071547031402588,20,0.0,0.0,165,-2.415908098220825,0.01742875948548317,0.14265355467796326,0.006752845831215382,-1.285740017920034e-05,0.009810956194996834,-0.9999291300773621
44897.388,-0.01281159371137619,0.010691163130104542,-0.01174453366547823,0.06517807394266129,-0.02035132609307766,0.9934354424476624,0.29229971766471863,-3.1043150424957275,10.137808799743652,20,0.0,0.0,165,-2.415908098220825,0.01742875948548317,0.14265355467796326,0.006752845831215382,-1.285740017920034e-05,0.009810956194996834,-0.9999291300773621
44899.215,-0.01281159371137619,0.010691163130104542,-0.01174453366547823,0.05436253547668457,-0.016767850145697594,0.9916418790817261,0.23383717238903046,0.0073334532789886,13.723437309265137,20,0.0,0.0,165,-2.415908098220825,0.01742875948548317,0.14265355467796326,0.006752845831215382,-1.285740017920034e-05,0.009810956194996834,-0.9999291300773621
44901.118,-0.01281159371137619,0.010691163130104542,-0.01174453366547823,0.016416415572166443,-0.02286907471716404,0.9930956959724426,-0.14194954931735992,0.6890714764595032,4.363268852233887,20,0.0,0.0,165,-2.415956974029541,0.01737550087273121,0.14259260892868042,0.006774957291781902,0.0003108086821157485,0.009806055575609207,-0.9999289512634277
44903.098,-0.015067758038640022,0.0127208037301898,-0.0014674419071525335,-0.013158068060874939,-0.03576638177037239,0.9971040487289429,-0.56123948097229,-3.8279595375061035,-12.471362113952637,20,0.0,0.0,165,-2.415956974029541,0.01737550087273121,0.14259260892868042,0.006774957291781902,0.0003108086821157485,0.009806055575609207,-0.9999289512634277
44905.127,-0.015067758038640022,0.0127208037301898,-0.0014674419071525335,-0.007723458576947451,-0.039238788187503815,1.001259446144104,-0.8801490068435669,-5.852600574493408,-19.135543823242188,20,0.0,0.0,165,-2.415956974029541,0.01737550087273121,0.14259260892868042,0.006774957291781902,0.0003108086821157485,0.009806055575609207,-0.9999289512634277
44907.058,-0.015067758038640022,0.0127208037301898,-0.0014674419071525335,0.01960584707558155,-0.03013519011437893,1.0011154413223267,-0.8833914399147034,-2.2774271965026855,-8.861572265625,20,0.0,0.0,165,-2.415863275527954,0.01737387664616108,0.14277157187461853,0.007452245801687241,-0.0007429764955304563,0.00943127740174532,-0.9999275207519531
44909.11,-0.015292458236217499,0.01289677806198597,0.009004883468151093,0.05073614418506622,-0.019237255677580833,0.999385416507721,-0.5388769507408142,1.8836413621902466,7.323416709899902,20,0.0,0.0,165,-2.415863275527954,0.01737387664616108,0.14277157187461853,0.007452245801687241,-0.0007429764955304563,0.00943127740174532,-0.9999275207519531
44911.021,-0.015292458236217499,0.01289677806198597,0.009004883468151093,0.05988747254014015,-0.0204799622297287,0.9977090954780579,-0.23200732469558716,1.940746545791626,12.424301147460938,20,0.0,0.0,165,-2.415863275527954,0.01737387664616108,0.14277157187461853,0.007452245801687241,-0.0007429764955304563,0.00943127740174532,-0.9999275207519531
44913.007,-0.017249135300517082,0.014711336232721806,0.00881147664040327,0.0417199581861496,-0.03361363708972931,0.9983891248703003,-0.2918563485145569,-1.7440354824066162,-3.0408334732055664,20,0.0,0.0,165,-2.416424512863159,0.017556482926011086,0.14223575592041016,0.007109062280505896,0.0012935854028910398,0.009985817596316338,-0.9999240636825562
44915.031,-0.014199253171682358,0.013216308318078518,-0.01897166110575199,0.010668889619410038,-0.041273925453424454,1.0008050203323364,-1.0145313739776611,-5.294674873352051,-25.41503143310547,20,0.0,0.0,165,-2.416424512863159,0.017556482926011086,0.14223575592041016,0.007109062280505896,0.0012935854028910398,0.009985817596316338,-0.9999240636825562
44917.196,-0.014199253171682358,0.013216308318078518,-0.01897166110575199,-0.013470488600432873,-0.0369863286614418,1.0016944408416748,-1.8128315210342407,-5.332348346710205,-31.830055236816406,20,0.0,0.0,165,-2.4157874584198,0.01736176759004593,0.1428440511226654,0.007356670219451189,-0.0010380784515291452,0.00938926637172699,-0.99992835521698
44919.014,-0.014417736791074276,0.013383712619543076,-0.0096568139269948,-0.011892287991940975,-0.03159380704164505,1.002487063407898,-1.549988865852356,-2.685365915298462,-18.312530517578125,20,0.0,0.0,165,-2.4157874584198,0.01736176759004593,0.1428440511226654,0.007356670219451189,-0.0010380784515291452,0.00938926637172699,-0.99992835521698
44920.925,-0.014417736791074276,0.013383712619543076,-0.0096568139269948,0.028094476088881493,-0.027707012370228767,1.0015524625778198,-0.6297795176506042,-1.1863164901733398,0.48561742901802063,20,0.0,0.0,165,-2.4157874584198,0.01736176759004593,0.1428440511226654,0.007356670219451189,-0.0010380784515291452,0.00938926637172699,-0.99992835521698
44922.908,-0.016344623640179634,0.015178208239376545,-0.009620901197195053,0.1077396348118782,-0.01893187314271927,0.9955119490623474,0.2482185959815979,0.4787898063659668,13.531044006347656,20,0.0,0.0,165,-2.4164299964904785,0.017491037026047707,0.14244453608989716,0.008023150265216827,0.0005125189200043678,0.008488241583108902,-0.9999316930770874
44924.936,-0.016603028401732445,0.015363896265625954,0.0007871167035773396,0.17164331674575806,-0.005090974271297455,0.9905034899711609,0.9926959872245789,4.202411651611328,25.245813369750977,20,0.0,0.0,165,-2.4164299964904785,0.017491037026047707,0.14244453608989716,0.008023150265216827,0.0005125189200043678,0.008488241583108902,-0.9999316930770874
44926.868,-0.016603028401732445,0.015363896265625954,0.0007871167035773396,0.15170705318450928,-0.009738647378981113,0.9899972677230835,1.6204495429992676,3.1876630783081055,32.93342971801758,20,0.0,0.0,165,-2.4164299964904785,0.017491037026047707,0.14244453608989716,0.008023150265216827,0.0005125189200043678,0.008488241583108902,-0.9999316930770874
44928.937,-0.016603028401732445,0.015363896265625954,0.0007871167035773396,0.06013037636876106,-0.03672856464982033,0.9932170510292053,1.7521528005599976,-5.45653772354126,24.628616333007812,20,0.0,0.0,165,-2.4164562225341797,0.017467476427555084,0.1424088031053543,0.007881819270551205,0.0005159705760888755,0.008605525828897953,-0.999931812286377
44930.834,-0.016851119697093964,0.015537180937826633,0.010882611386477947,-0.03265538439154625,-0.04212765768170357,0.988314151763916,0.25744402408599854,-10.946440696716309,7.0950140953063965,20,0.0,0.0,165,-2.4164562225341797,0.017467476427555084,0.1424088031053543,0.007881819270551205,0.0005159705760888755,0.008605525828897953,-0.999931812286377
44932.815,-0.01879381760954857,0.017308073118329048,0.010185932740569115,-0.06058958172798157,-0.003506097476929426,0.9745094180107117,-2.4491488933563232,-5.253442764282227,-3.2322793006896973,20,0.0,0.0,165,-2.4164562225341797,0.017467476427555084,0.1424088031053543,0.007881819270551205,0.0005159705760888755,0.008605525828897953,-0.999931812286377
44934.849,-0.01879381760954857,0.017308073118329048,0.010185932740569115,-0.021838465705513954,0.051862504333257675,0.96258145570755,-4.71096134185791,4.149014472961426,-0.9659921526908875,20,0.0,0.0,165,-2.4162445068359375,0.017409102991223335,0.14266231656074524,0.0055652279406785965,0.002667135326191783,0.012817798182368279,-0.9998988509178162
44937.0,-0.0181287731975317,0.01619943231344223,-0.01758919656276703,0.02595340646803379,0.08930127322673798,0.9634919166564941,-6.141550064086914,6.9710235595703125,4.573886871337891,20,0.0,0.0,165,-2.4162445068359375,0.017409102991223335,0.14266231656074524,0.0055652279406785965,0.002667135326191783,0.012817798182368279,-0.9998988509178162
44938.838,-0.0181287731975317,0.01619943231344223,-0.01758919656276703,0.0613212063908577,0.10489749163389206,0.9713244438171387,-6.970963478088379,4.186192512512207,2.460479974746704,20,0.0,0.0,165,-2.4162445068359375,0.017409102991223335,0.14266231656074524,0.0055652279406785965,0.002667135326191783,0.012817798182368279,-0.9998988509178162
44940.733,-0.0181287731975317,0.01619943231344223,-0.01758919656276703,0.08960386365652084,0.12188737094402313,0.9831713438034058,-7.454313278198242,1.0357306003570557,-2.392218589782715,20,0.0,0.0,165,-2.4164838790893555,0.017524247989058495,0.1424044519662857,0.008215646259486675,0.0006869166390970349,0.008389717899262905,-0.9999308586120605
44942.715,-0.02016856148838997,0.01799837127327919,-0.011229544878005981,0.09637448936700821,0.13770823180675507,0.9978668689727783,-7.117254257202148,-2.764707326889038,-1.3326255083084106,20,0.0,0.0,165,-2.4164838790893555,0.017524247989058495,0.1424044519662857,0.008215646259486675,0.0006869166390970349,0.008389717899262905,-0.9999308586120605
44944.744,-0.02016856148838997,0.01799837127327919,-0.011229544878005981,0.0837240219116211,0.12223111838102341,1.020378828048706,-6.14188289642334,-5.36065673828125,6.673859596252441,20,0.0,0.0,165,-2.4159305095672607,0.017391569912433624,0.14284348487854004,0.00667578587308526,0.0008555632084608078,0.01043303869664669,-0.9999229907989502
44946.676,-0.02039862796664238,0.01814514771103859,-0.0010006871307268739,0.08655408769845963,0.08832889050245285,1.0391654968261719,-5.636272430419922,-1.890120267868042,19.60036277770996,20,0.0,0.0,165,-2.4159305095672607,0.017391569912433624,0.14284348487854004,0.00667578587308526,0.0008555632084608078,0.01043303869664669,-0.9999229907989502
44948.726,-0.02039862796664238,0.01814514771103859,-0.0010006871307268739,0.09611809998750687,0.04491057246923447,1.0457346439361572,-6.540971755981445,6.248332500457764,22.576778411865234,20,0.0,0.0,165,-2.4159305095672607,0.017391569912433624,0.14284348487854004,0.00667578587308526,0.0008555632084608078,0.01043303869664669,-0.9999229907989502
44950.638,-0.02039862796664238,0.01814514771103859,-0.0010006871307268739,0.0693778544664383,-0.017336629331111908,1.0511219501495361,-8.742450714111328,9.520771980285645,-3.3174078464508057,20,0.0,0.0,165,-2.4164068698883057,0.017723623663187027,0.1424342393875122,0.00885525718331337,0.0003540285979397595,0.008557328954339027,-0.9999241232872009
44952.625,-0.022507308050990105,0.02010420523583889,0.012706306762993336,0.028644071891903877,-0.05273141711950302,1.056644320487976,-11.340888023376465,4.496596336364746,-38.808624267578125,20,0.0,0.0,165,-2.4164068698883057,0.017723623663187027,0.1424342393875122,0.00885525718331337,0.0003540285979397595,0.008557328954339027,-0.9999241232872009
44954.648,-0.018337421119213104,0.02157745696604252,0.013264554552733898,0.02215617708861828,-0.011253474280238152,1.0527628660202026,-12.717451095581055,-2.4224231243133545,-36.234317779541016,20,0.0,0.0,164,-2.4164068698883057,0.017723623663187027,0.1424342393875122,0.00885525718331337,0.0003540285979397595,0.008557328954339027,-0.9999241232872009
44956.807,-0.017162298783659935,0.020888105034828186,-0.02381821535527706,0.014866373501718044,0.06606905907392502,1.0391275882720947,-12.217884063720703,-6.18873405456543,8.185906410217285,20,0.0,0.0,164,-2.415797472000122,0.017762985080480576,0.14276309311389923,0.008622564375400543,-0.0006542038172483444,0.009693216532468796,-0.9999156594276428
44958.631,-0.017395487055182457,0.021023433655500412,-0.014662656933069229,-0.04113130271434784,0.11527783423662186,1.0364973545074463,-12.58135986328125,-3.578538656234741,41.5097770690918,20,0.0,0.0,164,-2.415797472000122,0.017762985080480576,0.14276309311389923,0.008622564375400543,-0.0006542038172483444,0.009693216532468796,-0.9999156594276428
44960.552,-0.017395487055182457,0.021023433655500412,-0.014662656933069229,-0.07865548878908157,0.16442202031612396,1.037654995918274,-15.848167419433594,2.407132863998413,27.607175827026367,20,0.0,0.0,164,-2.415797472000122,0.017762985080480576,0.14276309311389923,0.008622564375400543,-0.0006542038172483444,0.009693216532468796,-0.9999156594276428
44962.523,-0.019577516242861748,0.02303721010684967,0.00019952247384935617,-0.0320986732840538,0.28448641300201416,1.0357569456100464,-20.32625961303711,1.248814344406128,-6.962414264678955,20,0.0,0.0,164,-2.415832281112671,0.017909333109855652,0.1426687389612198,0.009008492343127728,-0.0002559653657954186,0.010125299915671349,-0.9999082088470459
44964.552,-0.019577516242861748,0.02303721010684967,0.00019952247384935617,0.039248351007699966,0.4463272988796234,1.0462791919708252,-22.287311553955078,-4.5687689781188965,-7.872619152069092,20,0.0,0.0,164,-2.415832281112671,0.017909333109855652,0.1426687389612198,0.009008492343127728,-0.0002559653657954186,0.010125299915671349,-0.9999082088470459
44966.485,-0.019577516242861748,0.02303721010684967,0.00019952247384935617,0.050668880343437195,0.5392712354660034,1.0871282815933228,-19.79914665222168,-1.7106307744979858,37.16914749145508,20,0.0,0.0,164,-2.4146621227264404,0.017757710069417953,0.14314669370651245,0.008062668144702911,-0.003895167261362076,0.010007692500948906,-0.9999098777770996
44968.545,-0.019777312874794006,0.023154480382800102,0.0102224787697196,0.01747351512312889,0.5020922422409058,1.1534186601638794,-15.05747127532959,2.5155255794525146,74.79838562011719,20,0.0,0.0,164,-2.4146621227264404,0.017757710069417953,0.14314669370651245,0.008062668144702911,-0.003895167261362076,0.010007692500948906,-0.9999098777770996
44970.446,-0.019777312874794006,0.023154480382800102,0.0102224787697196,0.005719682667404413,0.390497088432312,1.2159494161605835,-10.404170989990234,-3.896528959274292,62.451324462890625,20,0.0,0.0,164,-2.4146621227264404,0.017757710069417953,0.14314669370651245,0.008062668144702911,-0.003895167261362076,0.010007692500948906,-0.9999098777770996
44972.432,-0.02172667719423771,0.025236377492547035,0.018021240830421448,0.025433192029595375,0.296930730342865,1.2564483880996704,-7.227531909942627,-8.106327056884766,28.270732879638672,20,0.0,0.0,164,-2.4151694774627686,0.018386201933026314,0.1429882049560547,0.009629424661397934,-0.0018927108030766249,0.010523497126996517,-0.9998965263366699
44974.465,-0.02172667719423771,0.025236377492547035,0.018021240830421448,0.04337558522820473,0.2408137321472168,1.2660068273544312,-6.038663387298584,-1.5100778341293335,19.63289451599121,20,0.0,0.0,164,-2.4151694774627686,0.018386201933026314,0.1429882049560547,0.009629424661397934,-0.0018927108030766249,0.010523497126996517,-0.9998965263366699
44976.616,-0.0208576712757349,0.024662945419549942,-0.008209099061787128,0.016652237623929977,0.13817572593688965,1.2542071342468262,-6.7275309562683105,2.1652228832244873,37.5153694152832,20,0.0,0.0,164,-2.4151694774627686,0.018386201933026314,0.1429882049560547,0.009629424661397934,-0.0018927108030766249,0.010523497126996517,-0.9998965263366699
44978.449,-0.0208576712757349,0.024662945419549942,-0.008209099061787128,-0.06333130598068237,-0.05821607634425163,1.2072672843933105,-10.777294158935547,-4.006220817565918,41.64155960083008,20,0.0,0.0,164,-2.417180061340332,0.019244471564888954,0.14100965857505798,0.010122258216142654,0.002866497728973627,0.013441836461424828,-0.999854326248169
44980.351,-0.023343371227383614,0.02779722400009632,0.023820482194423676,-0.14003314077854156,-0.2611936330795288,1.113784670829773,-21.19136619567871,-5.921601295471191,7.160009384155273,20,0.0,0.0,164,-2.417180061340332,0.019244471564888954,0.14100965857505798,0.010122258216142654,0.002866497728973627,0.013441836461424828,-0.999854326248169
44982.331,-0.023343371227383614,0.02779722400009632,0.023820482194423676,-0.12312998622655869,-0.3593640923500061,0.9911227226257324,-34.81178665161133,0.4834381937980652,-43.87726974487305,20,0.0,0.0,164,-2.417180061340332,0.019244471564888954,0.14100965857505798,0.010122258216142654,0.002866497728973627,0.013441836461424828,-0.999854326248169
44984.36,-0.023343371227383614,0.02779722400009632,0.023820482194423676,-0.0033380293752998114,-0.44029274582862854,0.8627901673316956,-40.653846740722656,-2.096752166748047,-60.9667854309082,20,0.0,0.0,164,-2.4166457653045654,0.01964627578854561,0.1414986401796341,0.012695349752902985,0.00269794138148427,0.012994000688195229,-0.9998314380645752
44986.293,-0.023595798760652542,0.028047854080796242,0.03379495069384575,0.032576948404312134,-0.6556946039199829,0.7922073602676392,-30.48188018798828,-16.34108543395996,-15.944051742553711,20,0.0,0.0,164,-2.4166457653045654,0.01964627578854561,0.1414986401796341,0.012695349752902985,0.00269794138148427,0.012994000688195229,-0.9998314380645752
44988.35,-0.023595798760652542,0.028047854080796242,0.03379495069384575,-0.07167599350214005,-0.9878038763999939,0.7766213417053223,-5.745037078857422,-24.01081657409668,50.982574462890625,20,0.0,0.0,164,-2.4166457653045654,0.01964627578854561,0.1414986401796341,0.012695349752902985,0.00269794138148427,0.012994000688195229,-0.9998314380645752
44990.254,-0.023595798760652542,0.028047854080796242,0.03379495069384575,-0.17327553033828735,-1.2632856369018555,0.8208405375480652,25.43387222290039,-16.6506290435791,66.45565795898438,20,0.0,0.0,164,-2.4168858528137207,0.019671808928251266,0.14131394028663635,0.015294441021978855,0.0003666976699605584,0.0068834396079182625,-0.9998592734336853
44992.236,-0.024931516498327255,0.030168281868100166,0.03191034123301506,-0.1976507604122162,-1.3541382551193237,0.9448752403259277,59.46628952026367,-10.942428588867188,11.89887809753418,20,0.0,0.0,164,-2.4168858528137207,0.019671808928251266,0.14131394028663635,0.015294441021978855,0.0003666976699605584,0.0068834396079182625,-0.9998592734336853
44994.271,-0.024931516498327255,0.030168281868100166,0.03191034123301506,-0.12912146747112274,-1.2710732221603394,1.1236984729766846,93.65243530273438,-14.841836929321289,-47.32979202270508,20,0.0,0.0,164,-2.4175002574920654,0.019344141706824303,0.14112043380737305,0.009745732881128788,0.003947542514652014,0.013791396282613277,-0.9998496770858765
44996.423,-0.024931516498327255,0.030168281868100166,0.03191034123301506,0.002634582109749317,-1.1595327854156494,1.3820440769195557,128.44461059570312,-12.641777992248535,-44.50244140625,20,0.0,1.0,163,-2.4175002574920654,0.019344141706824303,0.14112043380737305,0.009745732881128788,0.003947542514652014,0.013791396282613277,-0.9998496770858765
44998.247,-0.028126752004027367,0.004408489912748337,0.013443036936223507,0.08759284764528275,-1.3911046981811523,1.7375952005386353,163.60118103027344,-4.732612609863281,14.56114673614502,20,0.0,1.0,163,-2.4175002574920654,0.019344141706824303,0.14112043380737305,0.009745732881128788,0.003947542514652014,0.013791396282613277,-0.9998496770858765
45000.158,-0.028126752004027367,0.004408489912748337,0.013443036936223507,-0.0629267543554306,-2.3952949047088623,1.951500415802002,206.23472595214844,3.986015558242798,75.20179748535156,20,0.0,1.0,163,-2.4158644676208496,0.018804065883159637,0.14348717033863068,0.000593310862313956,0.0027494158130139112,0.023746931925415993,-0.9997141361236572
45002.14,-0.0312141515314579,0.00933182891458273,0.06235614791512489,-0.3331134617328644,-3.6078875064849854,1.6996803283691406,239.26950073242188,7.660686016082764,94.45897674560547,20,0.0,1.0,163,-2.4158644676208496,0.018804065883159637,0.14348717033863068,0.000593310862313956,0.0027494158130139112,0.023746931925415993,-0.9997141361236572
45004.169,-0.0312141515314579,0.00933182891458273,0.06235614791512489,-0.3187982738018036,-3.8293349742889404,1.260270118713379,215.52037048339844,-0.7646586298942566,-39.596961975097656,20,0.0,1.0,163,-2.4158644676208496,0.018804065883159637,0.14348717033863068,0.000593310862313956,0.0027494158130139112,0.023746931925415993,-0.9997141361236572
45006.102,-0.0312141515314579,0.00933182891458273,0.06235614791512489,-0.0409264974296093,-2.9695627689361572,0.9813737869262695,139.48287963867188,-2.3140552043914795,-267.7388916015625,20,0.0,1.0,163,-2.416104793548584,0.01716119796037674,0.14355608820915222,-0.002447965554893017,-0.0007595955394208431,0.007110332604497671,-0.9999715089797974
45008.166,-0.031390249729156494,0.00973574724048376,0.07240799814462662,0.012390552088618279,-1.9843963384628296,1.0599815845489502,62.80659484863281,9.477900505065918,-275.3282470703125,20,0.0,1.0,163,-2.416104793548584,0.01716119796037674,0.14355608820915222,-0.002447965554893017,-0.0007595955394208431,0.007110332604497671,-0.9999715089797974
45010.072,-0.031390249729156494,0.00973574724048376,0.07240799814462662,-0.14541129767894745,-1.3771311044692993,1.4660253524780273,-1.752870798110962,18.990934371948242,-83.25845336914062,20,0.0,1.0,163,-2.416104793548584,0.01716119796037674,0.14355608820915222,-0.002447965554893017,-0.0007595955394208431,0.007110332604497671,-0.9999715089797974
45012.052,-0.031390249729156494,0.00973574724048376,0.07240799814462662,-0.14238496124744415,-0.9499526619911194,1.9510486125946045,-69.91952514648438,20.94944190979004,8.392770767211914,20,0.0,1.0,163,-2.416907787322998,0.015701647847890854,0.1444082111120224,-0.008487053215503693,0.0007979758665896952,0.0032461935188621283,-0.9999583959579468
45014.087,-0.03439415991306305,0.01122577115893364,0.1140102967619896,-0.003744179382920265,-0.3907758295536041,2.3139724731445312,-131.18789672851562,21.072669982910156,-7.552694320678711,20,0.0,1.0,163,-2.416907787322998,0.015701647847890854,0.1444082111120224,-0.008487053215503693,0.0007979758665896952,0.0032461935188621283,-0.9999583959579468
45016.247,-0.03439415991306305,0.01122577115893364,0.1140102967619896,0.05055537819862366,0.2327934056520462,2.3487048149108887,-161.2772979736328,22.617069244384766,6.645378589630127,20,1.0,10.0,161,-2.4175119400024414,0.012913805432617664,0.1444299817085266,-0.003952827770262957,0.002336383331567049,0.008556799031794071,-0.9999528527259827
45018.064,-0.03439415991306305,0.01122577115893364,0.1140102967619896,0.13836579024791718,0.5951678156852722,2.0139763355255127,-145.63890075683594,9.941771507263184,16.476856231689453,20,1.0,10.0,161,-2.4175119400024414,0.012913805432617664,0.1444299817085266,-0.003952827770262957,0.002336383331567049,0.008556799031794071,-0.9999528527259827
45019.967,-0.017869744449853897,0.056435007601976395,0.10937163233757019,0.3453713357448578,0.6439582109451294,1.7556862831115723,-83.59780883789062,-11.011890411376953,-9.71500015258789,20,1.0,10.0,161,-2.4175119400024414,0.012913805432617664,0.1444299817085266,-0.003952827770262957,0.002336383331567049,0.008556799031794071,-0.9999528527259827
45021.957,-0.017869744449853897,0.056435007601976395,0.10937163233757019,0.4296724200248718,0.5193774700164795,1.8470938205718994,4.168514251708984,-5.960254192352295,6.78347635269165,20,1.0,10.0,161,-2.4177913665771484,0.010088049806654453,0.14586736261844635,0.0030552116222679615,0.001847463077865541,0.017811693251132965,-0.9998350143432617
45023.982,-0.022896254435181618,0.053193576633930206,0.22382695972919464,0.3506195843219757,0.02702922560274601,2.053421974182129,100.30450439453125,13.413575172424316,60.92469024658203,20,1.0,10.0,161,-2.4177913665771484,0.010088049806654453,0.14586736261844635,0.0030552116222679615,0.001847463077865541,0.017811693251132965,-0.9998350143432617
45025.91,-0.022896254435181618,0.053193576633930206,0.22382695972919464,0.14100401103496552,-0.8636674284934998,2.279189348220825,190.7066650390625,18.229022979736328,61.93208312988281,20,1.0,10.0,161,-2.4177913665771484,0.010088049806654453,0.14586736261844635,0.0030552116222679615,0.001847463077865541,0.017811693251132965,-0.9998350143432617
45027.959,-0.022896254435181618,0.053193576633930206,0.22382695972919464,-0.11439694464206696,-1.4735782146453857,2.333406686782837,247.99485778808594,14.959753036499023,-10.783866882324219,20,1.0,10.0,161,-2.417391538619995,0.007406868971884251,0.1476726233959198,-0.00047601625556126237,-0.004825223702937365,0.02199724316596985,-0.9997463226318359
45029.871,-0.023187704384326935,0.052139438688755035,0.23362678289413452,-0.21360504627227783,-0.9138243198394775,1.8496227264404297,239.21311950683594,20.304317474365234,-132.996337890625,20,1.0,10.0,161,-2.417391538619995,0.007406868971884251,0.1476726233959198,-0.00047601625556126237,-0.004825223702937365,0.02199724316596985,-0.9997463226318359
45031.866,-0.02723170630633831,0.05164913460612297,0.33864709734916687,0.09918127208948135,0.8518300652503967,1.005564570426941,163.2812957763672,23.062969207763672,-255.6136016845703,20,1.0,10.0,161,-2.417391538619995,0.007406868971884251,0.1476726233959198,-0.00047601625556126237,-0.004825223702937365,0.02199724316596985,-0.9997463226318359
45033.884,-0.02723170630633831,0.05164913460612297,0.33864709734916687,0.49794235825538635,2.810488700866699,0.5994132161140442,69.81568908691406,13.017728805541992,-244.03671264648438,20,1.0,10.0,161,-2.417487621307373,0.007024019956588745,0.14975817501544952,-0.01858650892972946,-0.0008461815887130797,0.023659443482756615,-0.999547004699707
45036.042,-0.027559028938412666,0.05041933432221413,0.34961533546447754,0.5630357265472412,3.963758707046509,0.6299510598182678,-1.2971417903900146,-2.4733986854553223,-11.71370792388916,20,0.0,6.0,158,-2.417487621307373,0.007024019956588745,0.14975817501544952,-0.01858650892972946,-0.0008461815887130797,0.023659443482756615,-0.999547004699707
45037.881,-0.02028765343129635,0.04210003837943077,0.2979327440261841,0.35332438349723816,4.139360427856445,1.274675965309143,-53.811302185058594,-17.098630905151367,283.7147521972656,20,0.0,6.0,158,-2.417487621307373,0.007024019956588745,0.14975817501544952,-0.01858650892972946,-0.0008461815887130797,0.023659443482756615,-0.999547004699707
45039.774,-0.02028765343129635,0.04210003837943077,0.2979327440261841,-0.06846441328525543,3.740365982055664,2.5208611488342285,-100.73170471191406,-17.780044555664062,399.296875,20,0.0,6.0,158,-2.4176347255706787,0.006292448379099369,0.1508024036884308,-0.01661786437034607,-0.00044586765579879284,0.009168964810669422,-0.999819815158844
45041.756,-0.022325195372104645,0.038470372557640076,0.32063642144203186,-0.45677924156188965,3.303072929382324,3.2973244190216064,-138.7998504638672,-11.491379737854004,309.5386657714844,20,0.0,6.0,158,-2.4176347255706787,0.006292448379099369,0.1508024036884308,-0.01661786437034607,-0.00044586765579879284,0.009168964810669422,-0.999819815158844
45043.786,-0.022325195372104645,0.038470372557640076,0.32063642144203186,-0.4323664903640747,2.946894645690918,3.115339517593384,-135.967041015625,-12.876808166503906,214.22474670410156,20,0.0,6.0,158,-2.417332649230957,0.0048172990791499615,0.15395234525203705,-0.007719476707279682,-0.0004646421584766358,-0.0068649109452962875,-0.9999465942382812
45045.718,-0.022668709978461266,0.037382595241069794,0.3311324119567871,-0.16517828404903412,2.269705295562744,2.3260819911956787,-68.39151000976562,-23.218658447265625,234.7206573486328,20,0.0,6.0,158,-2.417332649230957,0.0048172990791499615,0.15395234525203705,-0.007719476707279682,-0.0004646421584766358,-0.0068649109452962875,-0.9999465942382812
45047.778,-0.022668709978461266,0.037382595241069794,0.3311324119567871,-0.13801652193069458,1.1277271509170532,1.4794151782989502,30.79543685913086,-33.15503692626953,221.1007080078125,20,0.0,6.0,158,-2.417332649230957,0.0048172990791499615,0.15395234525203705,-0.007719476707279682,-0.0004646421584766358,-0.0068649109452962875,-0.9999465942382812
45049.679,-0.022668709978461266,0.037382595241069794,0.3311324119567871,-0.1777443140745163,-0.05646125227212906,0.7539195418357849,124.9655532836914,-31.627208709716797,29.264606475830078,20,0.0,6.0,158,-2.417477607727051,0.004336969461292028,0.15725186467170715,-0.003958859946578741,-0.00037070357939228415,-0.01219895575195551,-0.99991774559021
45051.661,-0.02673325315117836,0.030755622312426567,0.4687393009662628,0.014493263326585293,-0.955051600933075,0.14406974613666534,213.34950256347656,-23.715360641479492,-173.637939453125,20,0.0,6.0,158,-2.417477607727051,0.004336969461292028,0.15725186467170715,-0.003958859946578741,-0.00037070357939228415,-0.01219895575195551,-0.99991774559021
45053.699,-0.02673325315117836,0.030755622312426567,0.4687393009662628,0.05789176747202873,-1.562600016593933,-0.16390810906887054,288.0082702636719,-17.59324073791504,-157.09519958496094,20,0.0,6.0,158,-2.417477607727051,0.004336969461292028,0.15725186467170715,-0.003958859946578741,-0.00037070357939228415,-0.01219895575195551,-0.99991774559021
45055.863,-0.02673325315117836,0.030755622312426567,0.4687393009662628,-0.1723388135433197,-1.7549949884414673,-0.07109834998846054,327.05377197265625,-2.458803176879883,-44.739585876464844,20,0.0,6.0,158,-2.4184982776641846,0.004732085857540369,0.1575552225112915,-0.01905750297009945,0.0020597190596163273,0.005457936320453882,-0.9998013973236084
45057.683,-0.036719806492328644,-0.062388330698013306,0.5044684410095215,-0.32557493448257446,-1.348008155822754,0.2649708688259125,329.5631103515625,13.27187728881836,-99.05048370361328,23,-8.0,6.0,154,-2.4184982776641846,0.004732085857540369,0.1575552225112915,-0.01905750297009945,0.0020597190596163273,0.005457936320453882,-0.9998013973236084
45059.587,-0.036719806492328644,-0.062388330698013306,0.5044684410095215,-0.17597605288028717,-0.8758878707885742,0.7406362891197205,321.6597595214844,1.695344090461731,-225.2776641845703,23,-8.0,6.0,154,-2.4178009033203125,0.005098472815006971,0.16064876317977905,-0.03917483612895012,0.0015900933649390936,0.013763575814664364,-0.9991363286972046
45061.565,-0.03600625693798065,-0.05468522012233734,0.43091121315956116,0.021584810689091682,-0.8978329300880432,1.338796615600586,311.09027099609375,-18.4424991607666,-97.85021209716797,23,-8.0,6.0,154,-2.4178009033203125,0.005098472815006971,0.16064876317977905,-0.03917483612895012,0.0015900933649390936,0.013763575814664364,-0.9991363286972046
45063.594,-0.03600625693798065,-0.05468522012233734,0.43091121315956116,-0.019235407933592796,-1.5283994674682617,1.921297311782837,276.0355224609375,-8.723671913146973,189.2741241455078,23,-8.0,6.0,154,-2.4178009033203125,0.005098472815006971,0.16064876317977905,-0.03917483612895012,0.0015900933649390936,0.013763575814664364,-0.9991363286972046
45065.527,-0.03600625693798065,-0.05468522012233734,0.43091121315956116,-0.2968128025531769,-2.2963807582855225,2.4284627437591553,192.14732360839844,12.719193458557129,264.3477783203125,23,-8.0,6.0,154,-2.41743803024292,0.004553693812340498,0.1641290783882141,-0.04937469959259033,0.003764947410672903,0.00722995912656188,-0.9987470507621765
45067.577,-0.03625382110476494,-0.05454910919070244,0.4403819441795349,-0.37992388010025024,-2.129564046859741,2.5880186557769775,57.41798400878906,-0.19391882419586182,57.39421463012695,23,-8.0,6.0,154,-2.41743803024292,0.004553693812340498,0.1641290783882141,-0.04937469959259033,0.003764947410672903,0.00722995912656188,-0.9987470507621765
45069.488,-0.03625382110476494,-0.05454910919070244,0.4403819441795349,-0.17925037443637848,-0.7587427496910095,2.251239776611328,-82.60993194580078,-39.91242218017578,-181.46470642089844,23,-8.0,6.0,154,-2.41743803024292,0.004553693812340498,0.1641290783882141,-0.04937469959259033,0.003764947410672903,0.00722995912656188,-0.9987470507621765
45071.469,-0.03625382110476494,-0.05454910919070244,0.4403819441795349,-0.039227165281772614,0.8764689564704895,1.645092248916626,-161.8433074951172,-56.18830490112305,-167.65655517578125,23,-8.0,6.0,154,-2.4177465438842773,0.004285799339413643,0.1670125275850296,-0.05215230956673622,0.004432884976267815,-0.023919114843010902,-0.9983428716659546
45073.498,-0.04078477993607521,-0.07325917482376099,0.5600988268852234,-0.06504800170660019,1.452352523803711,0.9201834797859192,-158.38809204101562,-36.86815643310547,112.6223373413086,23,-8.0,6.0,154,-2.4177465438842773,0.004285799339413643,0.1670125275850296,-0.05215230956673622,0.004432884976267815,-0.023919114843010902,-0.9983428716659546
45075.668,-0.04078477993607521,-0.07325917482376099,0.5600988268852234,-0.22510044276714325,0.6117706894874573,0.188094362616539,-122.98503112792969,-16.90380859375,408.2982482910156,23,-8.0,6.0,154,-2.4177465438842773,0.004285799339413643,0.1670125275850296,-0.05215230956673622,0.004432884976267815,-0.023919114843010902,-0.9983428716659546
45077.49,-0.04078477993607521,-0.07325917482376099,0.5600988268852234,-0.3129953145980835,-0.982292652130127,-0.15711122751235962,-97.3873291015625,-13.781302452087402,432.7209167480469,23,-3.0,30.0,154,-2.418416738510132,0.0013289344497025013,0.16835318505764008,-0.036975961178541183,0.001851480919867754,-0.030589181929826736,-0.998846173286438
45079.395,-0.04820795729756355,-0.01986582577228546,0.5239630341529846,-0.33373475074768066,-2.266888380050659,0.05834989622235298,-90.27066802978516,-19.625667572021484,121.60514068603516,29,-3.0,30.0,154,-2.418416738510132,0.0013289344497025013,0.16835318505764008,-0.036975961178541183,0.001851480919867754,-0.030589181929826736,-0.998846173286438
45081.374,-0.04820795729756355,-0.01986582577228546,0.5239630341529846,-0.4218417704105377,-2.6567633152008057,0.6856909394264221,-81.47272491455078,-16.02265739440918,-342.00482177734375,29,-3.0,30.0,154,-2.418416738510132,0.0013289344497025013,0.16835318505764008,-0.036975961178541183,0.001851480919867754,-0.030589181929826736,-0.998846173286438
45083.401,-0.04673708602786064,-0.027114467695355415,0.469858318567276,-0.5516642928123474,-2.0069034099578857,1.4514092206954956,-53.582523345947266,-1.952694296836853,-611.3601684570312,29,-3.0,30.0,154,-2.419809579849243,-0.0002878096711356193,0.1694798618555069,-0.03497130423784256,0.005773433484137058,-0.01479871105402708,-0.9992620944976807
45085.335,-0.046958841383457184,-0.028080297634005547,0.4795497953891754,-0.4838135838508606,-0.6240249872207642,2.1259264945983887,-9.513630867004395,5.8459391593933105,-536.64453125,29,-3.0,30.0,154,-2.419809579849243,-0.0002878096711356193,0.1694798618555069,-0.03497130423784256,0.005773433484137058,-0.01479871105402708,-0.9992620944976807
45087.396,-0.046958841383457184,-0.028080297634005547,0.4795497953891754,-0.18727923929691315,0.7042979001998901,2.592966079711914,33.29478454589844,-0.09207786619663239,-279.1763610839844,29,-3.0,30.0,154,-2.4192657470703125,-0.0015046840999275446,0.17330782115459442,-0.039153773337602615,0.00264218938536942,0.009844111278653145,-0.9991812109947205
45089.301,-0.04714694619178772,-0.02911834605038166,0.4893761873245239,0.06374756991863251,1.2981325387954712,2.8203587532043457,51.45231246948242,0.2927449643611908,9.69459342956543,29,-3.0,30.0,154,-2.4192657470703125,-0.0015046840999275446,0.17330782115459442,-0.039153773337602615,0.00264218938536942,0.009844111278653145,-0.9991812109947205
45091.278,-0.04714694619178772,-0.02911834605038166,0.4893761873245239,0.07415136694908142,1.0755984783172607,2.800396203994751,36.43797302246094,14.465291023254395,189.40821838378906,29,-3.0,30.0,154,-2.4192657470703125,-0.0015046840999275446,0.17330782115459442,-0.039153773337602615,0.00264218938536942,0.009844111278653145,-0.9991812109947205
45093.307,-0.053334519267082214,-0.044881727546453476,0.5904754996299744,0.04885190352797508,0.40196600556373596,2.4237871170043945,-7.035634994506836,11.967653274536133,137.30206298828125,29,-3.0,30.0,154,-2.4193735122680664,-0.003841291880235076,0.17673130333423615,-0.03619617596268654,0.001436050166375935,0.03321930393576622,-0.9987913966178894
45095.488,-0.05352262035012245,-0.046190205961465836,0.6014014482498169,0.1967427134513855,0.02726013772189617,1.7916228771209717,-68.37525939941406,-5.336083889007568,-60.18351364135742,29,-3.0,30.0,154,-2.4193735122680664,-0.003841291880235076,0.17673130333423615,-0.03619617596268654,0.001436050166375935,0.03321930393576622,-0.9987913966178894
45097.296,-0.05688059702515602,-0.0035616883542388678,0.6225140690803528,0.3902999460697174,0.7486437559127808,1.0405765771865845,-150.27182006835938,-5.054728984832764,-169.0042266845703,29,-2.0,18.0,152,-2.4193735122680664,-0.003841291880235076,0.17673130333423615,-0.03619617596268654,0.001436050166375935,0.03321930393576622,-0.9987913966178894
45099.21,-0.05688059702515602,-0.0035616883542388678,0.6225140690803528,0.5180184841156006,2.0906927585601807,0.4365430474281311,-217.67774963378906,4.63931131362915,-99.37225341796875,37,-2.0,18.0,152,-2.4198668003082275,-0.004098817706108093,0.1804223209619522,-0.033967435359954834,0.0033647941891103983,0.02467377670109272,-0.9991127252578735
45101.184,-0.054274920374155045,-0.004405892454087734,0.5492477416992188,0.509921669960022,2.8991246223449707,0.30696165561676025,-224.9671173095703,-13.312895774841309,107.87140655517578,37,-2.0,18.0,152,-2.4198668003082275,-0.004098817706108093,0.1804223209619522,-0.033967435359954834,0.0033647941891103983,0.02467377670109272,-0.9991127252578735
45103.219,-0.0581897534430027,-0.01603175327181816,0.6031819581985474,0.36463138461112976,2.957775354385376,0.688824474811554,-194.81224060058594,-40.019134521484375,346.97686767578125,37,-2.0,18.0,152,-2.4198668003082275,-0.004098817706108093,0.1804223209619522,-0.033967435359954834,0.0033647941891103983,0.02467377670109272,-0.9991127252578735
45105.144,-0.0581897534430027,-0.01603175327181816,0.6031819581985474,0.08567149937152863,2.795177698135376,1.1252027750015259,-179.56336975097656,-36.32453918457031,383.8614501953125,37,-2.0,18.0,152,-2.4208781719207764,-0.0052900658920407295,0.18296371400356293,-0.022489480674266815,0.004668494686484337,-0.006158123258501291,-0.9997172355651855
45107.193,-0.058455225080251694,-0.01799965091049671,0.6138399839401245,-0.05651354789733887,2.340474843978882,1.23679780960083,-164.5692596435547,-27.715513229370117,212.4939422607422,37,-2.0,18.0,152,-2.4208781719207764,-0.0052900658920407295,0.18296371400356293,-0.022489480674266815,0.004668494686484337,-0.006158123258501291,-0.9997172355651855
45109.099,-0.058455225080251694,-0.01799965091049671,0.6138399839401245,-0.08985098451375961,1.3261048793792725,1.1372538805007935,-114.5156021118164,-34.22819519042969,144.34788513183594,37,-2.0,18.0,152,-2.4208781719207764,-0.0052900658920407295,0.18296371400356293,-0.022489480674266815,0.004668494686484337,-0.006158123258501291,-0.9997172355651855
45111.085,-0.058455225080251694,-0.01799965091049671,0.6138399839401245,-0.12029500305652618,0.10384557396173477,0.9633737206459045,-34.8170280456543,-35.20121383666992,169.80848693847656,37,-2.0,18.0,152,-2.4207265377044678,-0.005864506587386131,0.18599173426628113,-0.007769521791487932,0.00488327257335186,-0.02259804867208004,-0.9997025728225708
45113.115,-0.058832310140132904,-0.027491215616464615,0.6161377429962158,-0.1788194477558136,-0.5314716100692749,0.7850319147109985,42.29965591430664,-24.473159790039062,22.918930053710938,37,-2.0,18.0,152,-2.4207265377044678,-0.005864506587386131,0.18599173426628113,-0.007769521791487932,0.00488327257335186,-0.02259804867208004,-0.9997025728225708
45115.29,-0.058832310140132904,-0.027491215616464615,0.6161377429962158,-0.10479079186916351,-0.49719712138175964,0.5802192687988281,94.95967864990234,-17.117795944213867,-228.55015563964844,37,-8.0,12.0,148,-2.4217042922973633,-0.00598869938403368,0.18878307938575745,-0.014992301352322102,0.010676303878426552,-0.003973993007093668,-0.999822735786438
45117.097,-0.058832310140132904,-0.027491215616464615,0.6161377429962158,0.010591032914817333,-0.2777895927429199,0.36808621883392334,124.02864074707031,-18.58941650390625,-284.6788024902344,44,-8.0,12.0,148,-2.4217042922973633,-0.00598869938403368,0.18878307938575745,-0.014992301352322102,0.010676303878426552,-0.003973993007093668,-0.999822735786438
45119.009,-0.07077183574438095,-0.04430757835507393,0.5443295836448669,-0.18316051363945007,-0.16039179265499115,0.3428366482257843,126.96876525878906,-23.937816619873047,-175.8678436279297,44,-8.0,12.0,148,-2.4217042922973633,-0.00598869938403368,0.18878307938575745,-0.014992301352322102,0.010676303878426552,-0.003973993007093668,-0.999822735786438
45120.99,-0.07077183574438095,-0.04430757835507393,0.5443295836448669,-0.43796423077583313,-0.16886276006698608,0.5482393503189087,104.3058853149414,-24.05666160583496,-171.58053588867188,44,-8.0,12.0,148,-2.421290397644043,-0.005032289307564497,0.19263935089111328,-0.026153935119509697,0.009443012066185474,0.019797347486019135,-0.999417245388031
45123.019,-0.07052043080329895,-0.04510314762592316,0.5046576261520386,-0.29419681429862976,-0.218256875872612,0.7648094296455383,68.62879943847656,-9.983621597290039,-223.19906616210938,44,-8.0,12.0,148,-2.421290397644043,-0.005032289307564497,0.19263935089111328,-0.026153935119509697,0.009443012066185474,0.019797347486019135,-0.999417245388031
45124.952,-0.07052043080329895,-0.04510314762592316,0.5046576261520386,0.025323303416371346,-0.500787079334259,0.9920015335083008,39.35618209838867,4.777812957763672,-95.85523223876953,44,-8.0,12.0,148,-2.421290397644043,-0.005032289307564497,0.19263935089111328,-0.026153935119509697,0.009443012066185474,0.019797347486019135,-0.999417245388031
45127.011,-0.07052043080329895,-0.04510314762592316,0.5046576261520386,0.16493935883045197,-1.1031147241592407,1.3026676177978516,14.682044982910156,9.075165748596191,158.3776092529297,44,-8.0,12.0,148,-2.4219484329223633,-0.005396813619881868,0.195556178689003,-0.026222404092550278,0.00906637217849493,0.023980874568223953,-0.9993273615837097
45128.915,-0.0707685723900795,-0.04673193767666817,0.5163857936859131,0.10632747411727905,-1.5276767015457153,1.5978419780731201,-25.3524112701416,0.9969474077224731,262.5148620605469,44,-8.0,12.0,148,-2.4219484329223633,-0.005396813619881868,0.195556178689003,-0.026222404092550278,0.00906637217849493,0.023980874568223953,-0.9993273615837097
45130.903,-0.0707685723900795,-0.04673193767666817,0.5163857936859131,0.020243100821971893,-1.2791941165924072,1.9094274044036865,-72.26297760009766,-9.514737129211426,121.63414001464844,44,-8.0,12.0,148,-2.4219484329223633,-0.005396813619881868,0.195556178689003,-0.026222404092550278,0.00906637217849493,0.023980874568223953,-0.9993273615837097
45132.922,-0.0707685723900795,-0.04673193767666817,0.5163857936859131,-0.09250811487436295,-0.6925320625305176,2.1746339797973633,-100.21300506591797,-12.308918952941895,-19.60480308532715,44,-8.0,12.0,148,-2.4213099479675293,-0.006306433118879795,0.1987818032503128,-0.024399755522608757,0.005693896673619747,0.009561136364936829,-0.9996404051780701
45135.091,-0.07601761817932129,-0.0553460493683815,0.5753939151763916,-0.1592010110616684,-0.5603364109992981,2.080702066421509,-81.1927261352539,-15.39620590209961,56.27903747558594,44,1.0,-3.0,147,-2.4213099479675293,-0.006306433118879795,0.1987818032503128,-0.024399755522608757,0.005693896673619747,0.009561136364936829,-0.9996404051780701
45136.921,-0.07658220082521439,-0.03409883752465248,0.5833205580711365,-0.2328127920627594,-1.241519808769226,1.4882525205612183,-30.0556583404541,-15.20865249633789,247.1138458251953,49,1.0,-3.0,147,-2.4214835166931152,-0.008106527850031853,0.20300836861133575,-0.018609588965773582,0.009532569907605648,-0.007728508207947016,-0.9997515678405762
45138.828,-0.07334759831428528,-0.03329828009009361,0.5018091797828674,-0.20330572128295898,-2.295968770980835,0.6959422826766968,14.561352729797363,-9.111845970153809,268.0946960449219,49,1.0,-3.0,147,-2.4214835166931152,-0.008106527850031853,0.20300836861133575,-0.018609588965773582,0.009532569907605648,-0.007728508207947016,-0.9997515678405762
45140.799,-0.07334759831428528,-0.03329828009009361,0.5018091797828674,-0.10961185395717621,-2.9208149909973145,-0.002105421619489789,24.84972381591797,-17.267398834228516,44.381439208984375,49,1.0,-3.0,147,-2.4214835166931152,-0.008106527850031853,0.20300836861133575,-0.018609588965773582,0.009532569907605648,-0.007728508207947016,-0.9997515678405762
45142.837,-0.07334759831428528,-0.03329828009009361,0.5018091797828674,-0.12033955752849579,-2.777106761932373,-0.39860522747039795,4.97358512878418,-37.34149169921875,-212.94735717773438,49,1.0,-3.0,147,-2.4230339527130127,-0.009114108979701996,0.20503555238246918,-0.017344139516353607,0.009705961681902409,-0.013021997176110744,-0.9997177124023438
45144.764,-0.07590147107839584,-0.03986160457134247,0.5178560018539429,-0.2155335247516632,-2.0435547828674316,-0.3625199496746063,-21.776548385620117,-37.34712219238281,-307.9765930175781,49,1.0,-3.0,147,-2.4230339527130127,-0.009114108979701996,0.20503555238246918,-0.017344139516353607,0.009705961681902409,-0.013021997176110744,-0.9997177124023438
45146.819,-0.07590147107839584,-0.03986160457134247,0.5178560018539429,-0.3105151355266571,-0.8857648372650146,0.10796797275543213,-52.82896423339844,-11.190813064575195,-247.57546997070312,49,1.0,-3.0,147,-2.4230339527130127,-0.009114108979701996,0.20503555238246918,-0.017344139516353607,0.009705961681902409,-0.013021997176110744,-0.9997177124023438
45148.721,-0.07590147107839584,-0.03986160457134247,0.5178560018539429,-0.2537270486354828,0.19421781599521637,0.7462521195411682,-86.33621215820312,5.100889205932617,-164.5813446044922,49,1.0,-3.0,147,-2.4239487648010254,-0.010288039222359657,0.207330122590065,-0.021183563396334648,0.011482592672109604,-0.00486713694408536,-0.9996978044509888
45150.703,-0.07623770833015442,-0.0421815924346447,0.5303968191146851,-0.05123278126120567,0.6145594716072083,1.298356056213379,-111.74951934814453,-4.755800724029541,-74.73606872558594,49,1.0,-3.0,147,-2.4239487648010254,-0.010288039222359657,0.207330122590065,-0.021183563396334648,0.011482592672109604,-0.00486713694408536,-0.9996978044509888
45152.736,-0.07623770833015442,-0.0421815924346447,0.5303968191146851,0.082792267203331,0.3552808463573456,1.62836492061615,-134.58143615722656,-14.375529289245605,33.553401947021484,49,1.0,-3.0,147,-2.4239487648010254,-0.010288039222359657,0.207330122590065,-0.021183563396334648,0.011482592672109604,-0.00486713694408536,-0.9996978044509888
45154.899,-0.07557138800621033,-0.04431632533669472,0.4675442576408386,0.08237279951572418,-0.10130920261144638,1.7328377962112427,-163.94664001464844,-10.418339729309082,50.320594787597656,54,2.0,-10.0,146,-2.423431634902954,-0.01352678518742323,0.21119922399520874,-0.011697388254106045,0.011035976931452751,0.009142103604972363,-0.9998289346694946
45156.715,-0.07095345109701157,-0.01846720464527607,0.3997117578983307,0.030802560970187187,-0.2991950511932373,1.61977219581604,-186.76165771484375,-11.242082595825195,-55.55394744873047,54,2.0,-10.0,146,-2.423431634902954,-0.01352678518742323,0.21119922399520874,-0.011697388254106045,0.011035976931452751,0.009142103604972363,-0.9998289346694946
45158.634,-0.07095345109701157,-0.01846720464527607,0.3997117578983307,-0.018241077661514282,-0.0936717689037323,1.3237025737762451,-183.6730499267578,-15.697118759155273,-140.10215759277344,54,2.0,-10.0,146,-2.423431634902954,-0.01352678518742323,0.21119922399520874,-0.011697388254106045,0.011035976931452751,0.009142103604972363,-0.9998289346694946
45160.612,-0.07132235914468765,-0.021388854831457138,0.41165056824684143,-0.033209428191185,0.32787105441093445,1.1087199449539185,-150.66390991210938,-6.93621301651001,-116.90938568115234,54,2.0,-10.0,146,-2.4245431423187256,-0.015727225691080093,0.2138376086950302,-0.0026832548901438713,0.011339054442942142,0.02204929105937481,-0.999688982963562
45162.636,-0.07132235914468765,-0.021388854831457138,0.41165056824684143,0.028714200481772423,0.6870080232620239,1.0469355583190918,-98.2592544555664,5.062671661376953,-18.719547271728516,54,2.0,-10.0,146,-2.4245431423187256,-0.015727225691080093,0.2138376086950302,-0.0026832548901438713,0.011339054442942142,0.02204929105937481,-0.999688982963562
45164.568,-0.07653040438890457,-0.02507481910288334,0.4553295969963074,0.1588476151227951,0.8776885271072388,1.006874442100525,-52.63877487182617,8.291999816894531,94.17044067382812,54,2.0,-10.0,146,-2.4240386486053467,-0.01792585477232933,0.21734769642353058,0.0031457545701414347,0.010547932237386703,0.02497391775250435,-0.9996275305747986
45166.631,-0.07690013945102692,-0.028412729501724243,0.4688647389411926,0.2485245317220688,0.8093937635421753,0.9967121481895447,-27.041574478149414,9.544175148010254,148.15306091308594,54,2.0,-10.0,146,-2.4240386486053467,-0.01792585477232933,0.21734769642353058,0.0031457545701414347,0.010547932237386703,0.02497391775250435,-0.9996275305747986
45168.53,-0.07690013945102692,-0.028412729501724243,0.4688647389411926,0.23816390335559845,0.5125468969345093,1.0486851930618286,-20.21307945251465,9.00533390045166,124.30790710449219,54,2.0,-10.0,146,-2.4240386486053467,-0.01792585477232933,0.21734769642353058,0.0031457545701414347,0.010547932237386703,0.02497391775250435,-0.9996275305747986
45170.51,-0.07690013945102692,-0.028412729501724243,0.4688647389411926,0.13145408034324646,0.34553053975105286,1.067445158958435,-36.375057220458984,7.442012786865234,51.31928253173828,54,2.0,-10.0,146,-2.4245388507843018,-0.019154313951730728,0.22015661001205444,0.004580767825245857,0.010274039581418037,0.017442120239138603,-0.9997846484184265
45172.546,-0.07728106528520584,-0.03169873729348183,0.48231616616249084,0.03566655516624451,0.8089572787284851,0.9544252753257751,-77.52217102050781,10.040771484375,-25.579601287841797,54,2.0,-10.0,146,-2.4245388507843018,-0.019154313951730728,0.22015661001205444,0.004580767825245857,0.010274039581418037,0.017442120239138603,-0.9997846484184265
45174.723,-0.07527231425046921,-0.01639789156615734,0.48822373151779175,0.026893243193626404,2.0337533950805664,0.8488057851791382,-135.9158477783203,7.2557172775268555,-68.8731918334961,65,-4.0,-8.0,142,-2.4245388507843018,-0.019154313951730728,0.22015661001205444,0.004580767825245857,0.010274039581418037,0.017442120239138603,-0.9997846484184265
45176.524,-0.07527231425046921,-0.01639789156615734,0.48822373151779175,0.05873395875096321,3.4083077907562256,0.6981217861175537,-178.9507598876953,-16.376670837402344,-48.97473907470703,65,-4.0,-8.0,142,-2.425218105316162,-0.01900065876543522,0.22331836819648743,0.006273260340094566,0.010259650647640228,-0.0024315044283866882,-0.9999248385429382
45178.434,-0.07168900221586227,-0.015279182232916355,0.4194134771823883,0.05261805281043053,3.93157958984375,0.43765050172805786,-168.38270568847656,-37.44866180419922,78.40038299560547,65,-4.0,-8.0,142,-2.425218105316162,-0.01900065876543522,0.22331836819648743,0.006273260340094566,0.010259650647640228,-0.0024315044283866882,-0.9999248385429382
45180.425,-0.07168900221586227,-0.015279182232916355,0.4194134771823883,-0.0077879056334495544,3.2645199298858643,0.3488120436668396,-113.9371109008789,-29.266490936279297,258.3518981933594,65,-4.0,-8.0,142,-2.425218105316162,-0.01900065876543522,0.22331836819648743,0.006273260340094566,0.010259650647640228,-0.0024315044283866882,-0.9999248385429382
45182.445,-0.07168900221586227,-0.015279182232916355,0.4194134771823883,-0.051153916865587234,1.9514665603637695,0.5070804357528687,-65.53386688232422,-14.9020414352417,315.5232238769531,65,-4.0,-8.0,142,-2.4258310794830322,-0.02056444063782692,0.2263229936361313,0.017703382298350334,0.009221784770488739,-0.01270701177418232,-0.9997200965881348
45184.385,-0.07265429198741913,-0.0195971317589283,0.39363351464271545,-0.08602932095527649,0.7578858733177185,0.7422798871994019,-42.47860336303711,-17.46104621887207,160.3731689453125,65,-4.0,-8.0,142,-2.4258310794830322,-0.02056444063782692,0.2263229936361313,0.017703382298350334,0.009221784770488739,-0.01270701177418232,-0.9997200965881348
45186.438,-0.07265429198741913,-0.0195971317589283,0.39363351464271545,-0.18103642761707306,0.01751098781824112,0.8876127600669861,-22.070940017700195,-18.54311180114746,-83.12134552001953,65,-4.0,-8.0,142,-2.4266412258148193,-0.021351318806409836,0.22862106561660767,0.022182676941156387,0.010050827637314796,-0.0035219958517700434,-0.999697208404541
45188.343,-0.073244608938694,-0.023126713931560516,0.4079391360282898,-0.2559273838996887,-0.2379378229379654,0.9717584848403931,15.97360897064209,-6.01928186416626,-247.24105834960938,65,-4.0,-8.0,142,-2.4266412258148193,-0.021351318806409836,0.22862106561660767,0.022182676941156387,0.010050827637314796,-0.0035219958517700434,-0.999697208404541
45190.319,-0.073244608938694,-0.023126713931560516,0.4079391360282898,-0.16969770193099976,0.01008462905883789,1.027605414390564,60.931636810302734,-1.750535011291504,-312.89788818359375,65,-4.0,-8.0,142,-2.4266412258148193,-0.021351318806409836,0.22862106561660767,0.022182676941156387,0.010050827637314796,-0.0035219958517700434,-0.999697208404541
45192.36,-0.073244608938694,-0.023126713931560516,0.4079391360282898,-0.02934824489057064,0.5353437066078186,1.0364657640457153,87.06260681152344,-11.487214088439941,-290.0383605957031,65,-4.0,-8.0,142,-2.4271998405456543,-0.019307440146803856,0.23088699579238892,0.006333976052701473,0.017308946698904037,0.030702371150255203,-0.9993587136268616
45194.515,-0.073244608938694,-0.023126713931560516,0.4079391360282898,0.020955724641680717,0.7746214866638184,1.0526988506317139,78.78043365478516,-15.870213508605957,-164.02952575683594,65,-9.0,-13.0,140,-2.4271998405456543,-0.019307440146803856,0.23088699579238892,0.006333976052701473,0.017308946698904037,0.030702371150255203,-0.9993587136268616
45196.341,-0.08546607941389084,-0.0482376329600811,0.34451305866241455,0.05736429989337921,0.5058801174163818,1.041716456413269,43.10725402832031,-11.9320707321167,-6.348446369171143,74,-9.0,-13.0,140,-2.4271998405456543,-0.019307440146803856,0.23088699579238892,0.006333976052701473,0.017308946698904037,0.030702371150255203,-0.9993587136268616
45198.246,-0.08546607941389084,-0.0482376329600811,0.34451305866241455,0.07909832149744034,0.028924107551574707,0.973109245300293,5.112009525299072,-11.18028450012207,74.70462036132812,74,-9.0,-13.0,140,-2.4268600940704346,-0.01958226040005684,0.23463962972164154,0.01029929704964161,0.011451068334281445,0.023512370884418488,-0.9996049404144287
45200.226,-0.0860251858830452,-0.05088910087943077,0.35767075419425964,0.028825752437114716,-0.3497973382472992,0.8287770748138428,-11.151646614074707,-11.055338859558105,90.89683532714844,74,-9.0,-13.0,140,-2.4268600940704346,-0.01958226040005684,0.23463962972164154,0.01029929704964161,0.011451068334281445,0.023512370884418488,-0.9996049404144287
45202.254,-0.0860251858830452,-0.05088910087943077,0.35767075419425964,0.017493072897195816,-0.7400303483009338,0.6581541299819946,2.052482843399048,0.5002421736717224,122.79082489013672,74,-9.0,-13.0,140,-2.4268600940704346,-0.01958226040005684,0.23463962972164154,0.01029929704964161,0.011451068334281445,0.023512370884418488,-0.9996049404144287
45204.185,-0.08839094638824463,-0.04681966081261635,0.3535621762275696,0.07946605235338211,-1.2995346784591675,0.6079380512237549,30.21626853942871,8.80321979522705,170.64669799804688,74,-9.0,-13.0,140,-2.427802085876465,-0.0195782333612442,0.23728527128696442,0.011544735170900822,0.012986238114535809,0.017761144787073135,-0.9996912479400635
45206.247,-0.08901948481798172,-0.04945749044418335,0.3684372007846832,0.19172340631484985,-1.785571813583374,0.7733924388885498,54.62853240966797,3.106600046157837,177.01730346679688,74,-9.0,-13.0,140,-2.427802085876465,-0.0195782333612442,0.23728527128696442,0.011544735170900822,0.012986238114535809,0.017761144787073135,-0.9996912479400635
45208.161,-0.08901948481798172,-0.04945749044418335,0.3684372007846832,0.16150593757629395,-1.9269999265670776,1.1634635925292969,65.77691650390625,-1.5025569200515747,136.52011108398438,74,-9.0,-13.0,140,-2.427802085876465,-0.0195782333612442,0.23728527128696442,0.011544735170900822,0.012986238114535809,0.017761144787073135,-0.9996912479400635
45210.128,-0.08901948481798172,-0.04945749044418335,0.3684372007846832,-0.05542591214179993,-1.9209647178649902,1.6681573390960693,70.18128967285156,3.1305501461029053,87.95484924316406,74,-9.0,-13.0,140,-2.4292047023773193,-0.02050517499446869,0.23876051604747772,0.008152634836733341,0.014109032228589058,-0.00048415391938760877,-0.9998671412467957
45212.159,-0.08968255668878555,-0.05208314582705498,0.383036345243454,-0.3327208459377289,-1.862420678138733,2.0118632316589355,61.1190071105957,9.036115646362305,65.2674560546875,74,-9.0,-13.0,140,-2.4292047023773193,-0.02050517499446869,0.23876051604747772,0.008152634836733341,0.014109032228589058,-0.00048415391938760877,-0.9998671412467957
45214.325,-0.09310730546712875,-0.04860977083444595,0.3856339752674103,-0.4427465796470642,-1.3568273782730103,1.78814697265625,17.22443962097168,9.884570121765137,-2.751861095428467,74,-9.0,-13.0,140,-2.429586410522461,-0.020011797547340393,0.24164584279060364,-0.00011380145588191226,0.017001330852508545,0.002950581954792142,-0.9998511075973511
45216.144,-0.09310730546712875,-0.04860977083444595,0.3856339752674103,-0.18887892365455627,-0.5500043630599976,1.0543217658996582,-35.235694885253906,8.455909729003906,-136.09982299804688,74,-2.0,-23.0,140,-2.429586410522461,-0.020011797547340393,0.24164584279060364,-0.00011380145588191226,0.017001330852508545,0.002950581954792142,-0.9998511075973511
45218.053,-0.08065042644739151,-0.06455355882644653,0.33333006501197815,0.10801875591278076,-0.1927647441625595,0.32197147607803345,-57.54596710205078,6.729091644287109,-123.09062957763672,82,-2.0,-23.0,140,-2.429586410522461,-0.020011797547340393,0.24164584279060364,-0.00011380145588191226,0.017001330852508545,0.002950581954792142,-0.9998511075973511
45220.032,-0.08065042644739151,-0.06455355882644653,0.33333006501197815,0.1582435816526413,-0.6558505892753601,-0.0685960128903389,-55.85242462158203,12.663176536560059,56.28220748901367,82,-2.0,-23.0,140,-2.4292454719543457,-0.021101241931319237,0.24619194865226746,0.0059776920825243,0.009596118703484535,-0.007224544417113066,-0.9999100565910339
45222.063,-0.08136828243732452,-0.06677078455686569,0.34694698452949524,0.04880163073539734,-1.150588035583496,-0.10048850625753403,-69.92090606689453,19.440221786499023,119.17809295654297,82,-2.0,-23.0,140,-2.4292454719543457,-0.021101241931319237,0.24619194865226746,0.0059776920825243,0.009596118703484535,-0.007224544417113066,-0.9999100565910339
45224.005,-0.0840458869934082,-0.06489323079586029,0.3376537263393402,0.022282026708126068,-0.9964157938957214,0.11654383689165115,-108.26375579833984,10.958297729492188,-63.568809509277344,82,-2.0,-23.0,140,-2.4292454719543457,-0.021101241931319237,0.24619194865226746,0.0059776920825243,0.009596118703484535,-0.007224544417113066,-0.9999100565910339
45226.048,-0.0840458869934082,-0.06489323079586029,0.3376537263393402,0.0034918864257633686,-0.5651942491531372,0.5674293637275696,-136.34780883789062,0.2376357465982437,-247.2284698486328,82,-2.0,-23.0,140,-2.4295575618743896,-0.022884514182806015,0.24819345772266388,0.012433717958629131,0.009004353545606136,0.0054476140066981316,-0.9998673796653748
45227.965,-0.08481816202402115,-0.06720886379480362,0.35289669036865234,-0.1360042840242386,-0.49788329005241394,1.0972504615783691,-124.61222076416016,3.932225227355957,-210.91111755371094,82,-2.0,-23.0,140,-2.4295575618743896,-0.022884514182806015,0.24819345772266388,0.012433717958629131,0.009004353545606136,0.0054476140066981316,-0.9998673796653748
45229.946,-0.08481816202402115,-0.06720886379480362,0.35289669036865234,-0.10713806748390198,-0.605435848236084,1.4890505075454712,-94.6973876953125,12.096132278442383,-101.67325592041016,82,-2.0,-23.0,140,-2.4316039085388184,-0.025105495005846024,0.25003325939178467,0.01708499900996685,0.012454450130462646,0.018355906009674072,-0.9996079802513123
45231.962,-0.08567626029253006,-0.06956885010004044,0.36790379881858826,0.11562500894069672,-0.44924160838127136,1.699629783630371,-84.85507202148438,4.018909454345703,-83.53556823730469,82,-2.0,-23.0,140,-2.4316039085388184,-0.025105495005846024,0.25003325939178467,0.01708499900996685,0.012454450130462646,0.018355906009674072,-0.9996079802513123
45234.135,-0.08706019073724747,-0.06888068467378616,0.3398216664791107,0.2559819221496582,-0.08852190524339676,1.6902645826339722,-97.44023132324219,-6.235355854034424,-50.63823699951172,82,-2.0,-23.0,140,-2.4316039085388184,-0.025105495005846024,0.25003325939178467,0.01708499900996685,0.012454450130462646,0.018355906009674072,-0.9996079802513123
45235.967,-0.08706019073724747,-0.06888068467378616,0.3398216664791107,0.23424746096134186,0.2521998882293701,1.6119242906570435,-114.24612426757812,4.4471049308776855,25.531185150146484,82,-1.0,-3.0,139,-2.4312241077423096,-0.026264861226081848,0.25406187772750854,0.024724433198571205,0.012144877575337887,0.023343872278928757,-0.9993479251861572
45237.864,-0.08706019073724747,-0.06888068467378616,0.3398216664791107,0.21570098400115967,0.49521419405937195,1.5361547470092773,-108.16324615478516,17.64118766784668,12.275252342224121,97,-1.0,-3.0,139,-2.4312241077423096,-0.026264861226081848,0.25406187772750854,0.024724433198571205,0.012144877575337887,0.023343872278928757,-0.9993479251861572
45239.843,-0.08119195699691772,-0.04590043053030968,0.3082387447357178,0.1654670685529709,0.5799062848091125,1.4943629503250122,-66.51045989990234,13.294240951538086,-22.032651901245117,97,-1.0,-3.0,139,-2.4312241077423096,-0.026264861226081848,0.25406187772750854,0.024724433198571205,0.012144877575337887,0.023343872278928757,-0.9993479251861572
45241.873,-0.08119195699691772,-0.04590043053030968,0.3082387447357178,0.0764462798833847,0.405708372592926,1.5415886640548706,-13.19472885131836,6.1816911697387695,84.76570892333984,97,-1.0,-3.0,139,-2.431999683380127,-0.027942534536123276,0.2569974362850189,0.029990408569574356,0.010311990976333618,0.0195015836507082,-0.9993067979812622
45243.806,-0.087644562125206,-0.04235519468784332,0.3812359571456909,0.1310255229473114,-0.0075462558306753635,1.5009373426437378,20.027008056640625,12.632392883300781,264.3506164550781,97,-1.0,-3.0,139,-2.431999683380127,-0.027942534536123276,0.2569974362850189,0.029990408569574356,0.010311990976333618,0.0195015836507082,-0.9993067979812622
45245.865,-0.087644562125206,-0.04235519468784332,0.3812359571456909,0.13218961656093597,-0.161094069480896,1.2064437866210938,8.522772789001465,18.160219192504883,274.84539794921875,97,-1.0,-3.0,139,-2.431999683380127,-0.027942534536123276,0.2569974362850189,0.029990408569574356,0.010311990976333618,0.0195015836507082,-0.9993067979812622
45247.764,-0.087644562125206,-0.04235519468784332,0.3812359571456909,0.07874256372451782,0.5184091329574585,0.7530765533447266,-47.68433380126953,15.357978820800781,30.54847526550293,97,-1.0,-3.0,139,-2.4321508407592773,-0.028878284618258476,0.26002755761146545,0.027582719922065735,0.009936660528182983,0.00880051963031292,-0.9995313882827759
45249.741,-0.08849972486495972,-0.045208994299173355,0.39649567008018494,0.2212931364774704,1.9882172346115112,0.4202364683151245,-109.16368865966797,13.284490585327148,-221.74659729003906,97,-1.0,-3.0,139,-2.4321508407592773,-0.028878284618258476,0.26002755761146545,0.027582719922065735,0.009936660528182983,0.00880051963031292,-0.9995313882827759
45251.783,-0.08849972486495972,-0.045208994299173355,0.39649567008018494,0.4097479283809662,3.330230474472046,0.30087676644325256,-135.4921417236328,6.166584014892578,-168.1037139892578,97,-1.0,-3.0,139,-2.4321508407592773,-0.028878284618258476,0.26002755761146545,0.027582719922065735,0.009936660528182983,0.00880051963031292,-0.9995313882827759
45253.933,-0.09110832214355469,-0.03950720652937889,0.39736828207969666,0.33565419912338257,3.735088586807251,0.5341668725013733,-131.80615234375,-3.3067169189453125,182.33815002441406,97,-1.0,-3.0,139,-2.4334304332733154,-0.028550244867801666,0.2627048194408417,0.03165682405233383,0.01056330744177103,-0.013209434226155281,-0.9993557333946228
45255.766,-0.09204180538654327,-0.042304497212171555,0.4141162037849426,0.01601932942867279,3.222357749938965,1.1222418546676636,-130.72393798828125,-5.296075344085693,455.0946044921875,97,-1.0,-3.0,139,-2.4334304332733154,-0.028550244867801666,0.2627048194408417,0.03165682405233383,0.01056330744177103,-0.013209434226155281,-0.9993557333946228
45257.667,-0.09204180538654327,-0.042304497212171555,0.4141162037849426,-0.31748706102371216,2.4225375652313232,1.5630877017974854,-138.4085693359375,-9.06235122680664,350.169921875,106,-8.0,-14.0,137,-2.434929370880127,-0.029706642031669617,0.26443102955818176,0.04064314439892769,0.00994602870196104,-0.017078688368201256,-0.9989782571792603
45259.649,-0.09481506794691086,-0.024167750030755997,0.37979769706726074,-0.390583872795105,1.8118748664855957,1.5884202718734741,-130.90306091308594,-18.247024536132812,27.08171272277832,106,-8.0,-14.0,137,-2.434929370880127,-0.029706642031669617,0.26443102955818176,0.04064314439892769,0.00994602870196104,-0.017078688368201256,-0.9989782571792603
45261.678,-0.09481506794691086,-0.024167750030755997,0.37979769706726074,-0.306963711977005,1.3303747177124023,1.2977832555770874,-88.47779846191406,-15.401844024658203,-152.5650177001953,106,-8.0,-14.0,137,-2.434929370880127,-0.029706642031669617,0.26443102955818176,0.04064314439892769,0.00994602870196104,-0.017078688368201256,-0.9989782571792603
45263.62,-0.09674558788537979,-0.01847417652606964,0.3859962522983551,-0.1941893845796585,0.8455266952514648,0.8830339908599854,-18.871328353881836,-4.638462066650391,-128.16505432128906,106,-8.0,-14.0,137,-2.4351465702056885,-0.02941873110830784,0.2677016854286194,0.04516270011663437,0.012047631666064262,-0.009935400448739529,-0.9988576173782349
45265.675,-0.0976366251707077,-0.021369967609643936,0.4010666608810425,-0.11468693614006042,0.3648461699485779,0.4627206325531006,52.27070999145508,-7.786831855773926,-83.5604476928711,106,-8.0,-14.0,137,-2.4351465702056885,-0.02941873110830784,0.2677016854286194,0.04516270011663437,0.012047631666064262,-0.009935400448739529,-0.9988576173782349
45267.572,-0.0976366251707077,-0.021369967609643936,0.4010666608810425,-0.09844991564750671,-0.11263144016265869,0.13003119826316833,105.42039489746094,-18.037681579589844,-121.357177734375,106,-8.0,-14.0,137,-2.4351465702056885,-0.02941873110830784,0.2677016854286194,0.04516270011663437,0.012047631666064262,-0.009935400448739529,-0.9988576173782349
45269.562,-0.0976366251707077,-0.021369967609643936,0.4010666608810425,-0.07809435576200485,-0.6274812817573547,0.06095857173204422,131.41822814941406,-10.184318542480469,-213.74444580078125,106,-8.0,-14.0,137,-2.435737133026123,-0.02794969081878662,0.270803838968277,0.03331643342971802,0.01906520500779152,0.02725260704755783,-0.998891294002533
45271.591,-0.09858857840299606,-0.02405407279729843,0.41602015495300293,-0.03957701474428177,-0.9321857690811157,0.21108052134513855,135.11175537109375,6.477004051208496,-292.86199951171875,106,-8.0,-14.0,137,-2.435737133026123,-0.02794969081878662,0.270803838968277,0.03331643342971802,0.01906520500779152,0.02725260704755783,-0.998891294002533
45273.747,-0.0972486212849617,-0.018220629543066025,0.36614057421684265,-0.043911341577768326,-0.8354070782661438,0.41960200667381287,128.83663940429688,10.69434642791748,-296.0911560058594,106,-8.0,-14.0,137,-2.435737133026123,-0.02794969081878662,0.270803838968277,0.03331643342971802,0.01906520500779152,0.02725260704755783,-0.998891294002533
45275.566,-0.0972486212849617,-0.018220629543066025,0.36614057421684265,-0.07913219183683395,-0.5794516205787659,0.6683555841445923,127.02790832519531,10.249724388122559,-174.0231475830078,106,-8.0,-14.0,137,-2.436549663543701,-0.02745283581316471,0.27301570773124695,0.030431827530264854,0.0135310934856534,0.02438761107623577,-0.9991476535797119
45277.483,-0.09819599241018295,-0.020800698548555374,0.38247498869895935,0.09400469809770584,-0.41514742374420166,0.958904504776001,132.78536987304688,16.143844604492188,49.62769317626953,106,-4.0,-15.0,136,-2.436549663543701,-0.02745283581316471,0.27301570773124695,0.030431827530264854,0.0135310934856534,0.02438761107623577,-0.9991476535797119
45279.465,-0.09033797681331635,-0.04854393005371094,0.3482784926891327,0.32462528347969055,-0.46762198209762573,1.284595251083374,138.44204711914062,18.114688873291016,230.44110107421875,119,-4.0,-15.0,136,-2.436549663543701,-0.02745283581316471,0.27301570773124695,0.030431827530264854,0.0135310934856534,0.02438761107623577,-0.9991476535797119
45281.485,-0.09033797681331635,-0.04854393005371094,0.3482784926891327,0.2848607897758484,-0.921638011932373,1.5624699592590332,138.99232482910156,11.772722244262695,267.35845947265625,119,-4.0,-15.0,136,-2.4362645149230957,-0.027199778705835342,0.2763761579990387,0.02570629119873047,0.009925918653607368,0.01679566502571106,-0.9994791746139526
45283.419,-0.09261199086904526,-0.042043257504701614,0.345334529876709,0.0901695266366005,-1.758147120475769,1.5574710369110107,135.3511505126953,11.795793533325195,228.56491088867188,119,-4.0,-15.0,136,-2.4362645149230957,-0.027199778705835342,0.2763761579990387,0.02570629119873047,0.009925918653607368,0.01679566502571106,-0.9994791746139526
45285.479,-0.09261199086904526,-0.042043257504701614,0.345334529876709,-0.010267917066812515,-2.348165512084961,1.29330313205719,116.54644012451172,11.810989379882812,183.86676025390625,119,-4.0,-15.0,136,-2.4364373683929443,-0.027452098205685616,0.27963483333587646,0.021443141624331474,0.010043276473879814,0.003777639474719763,-0.9997124671936035
45287.38,-0.09346821904182434,-0.043831199407577515,0.3599785566329956,-0.03691115975379944,-2.214175224304199,0.9303930401802063,72.1268539428711,4.50239896774292,79.88587951660156,119,-4.0,-15.0,136,-2.4364373683929443,-0.027452098205685616,0.27963483333587646,0.021443141624331474,0.010043276473879814,0.003777639474719763,-0.9997124671936035
45289.361,-0.09346821904182434,-0.043831199407577515,0.3599785566329956,-0.07506414502859116,-1.5042662620544434,0.6484960913658142,12.10905647277832,2.6552369594573975,-58.094947814941406,119,-4.0,-15.0,136,-2.4364373683929443,-0.027452098205685616,0.27963483333587646,0.021443141624331474,0.010043276473879814,0.003777639474719763,-0.9997124671936035
45291.389,-0.09346821904182434,-0.043831199407577515,0.3599785566329956,-0.08435948193073273,-0.5637931823730469,0.6362344622612,-43.1263427734375,11.697529792785645,-99.47074127197266,119,-4.0,-15.0,136,-2.437281370162964,-0.026332613080739975,0.28199270367622375,0.015301134437322617,0.009493040852248669,-0.019383864477276802,-0.9996500015258789
45293.55,-0.09655759483575821,-0.0394773967564106,0.37921571731567383,0.004631631076335907,0.5065515041351318,0.6982967853546143,-89.8087158203125,19.023784637451172,-18.858999252319336,119,-4.0,-15.0,136,-2.437281370162964,-0.026332613080739975,0.28199270367622375,0.015301134437322617,0.009493040852248669,-0.019383864477276802,-0.9996500015258789
45295.373,-0.09655759483575821,-0.0394773967564106,0.37921571731567383,0.1291724443435669,1.2118221521377563,0.6053827404975891,-118.50608825683594,20.49270248413086,94.3594970703125,119,-4.0,-15.0,136,-2.437281370162964,-0.026332613080739975,0.28199270367622375,0.015301134437322617,0.009493040852248669,-0.019383864477276802,-0.9996500015258789
45297.287,-0.09655759483575821,-0.0394773967564106,0.37921571731567383,0.04275033622980118,0.8879914283752441,0.47229358553886414,-115.78182983398438,18.491300582885742,211.2292022705078,119,-4.0,-15.0,136,-2.438633441925049,-0.02827814780175686,0.28411802649497986,0.019578484818339348,0.006941674742847681,-0.017094403505325317,-0.9996381402015686
45299.266,-0.09138429909944534,-0.027643725275993347,0.4006284475326538,-0.2753455340862274,-0.40327396988868713,0.5394681692123413,-89.36959075927734,17.134136199951172,242.99635314941406,127,-4.0,-12.0,135,-2.438633441925049,-0.02827814780175686,0.28411802649497986,0.019578484818339348,0.006941674742847681,-0.017094403505325317,-0.9996381402015686
45301.305,-0.08832690119743347,-0.027211928740143776,0.3522031605243683,-0.4381767511367798,-1.7416532039642334,0.8423404097557068,-60.50139617919922,16.541765213012695,16.036962509155273,127,-4.0,-12.0,135,-2.438633441925049,-0.02827814780175686,0.28411802649497986,0.019578484818339348,0.006941674742847681,-0.017094403505325317,-0.9996381402015686
45303.227,-0.08940399438142776,-0.028284534811973572,0.3256315588951111,-0.2963547706604004,-2.2228479385375977,1.1732088327407837,-39.0533332824707,16.966262817382812,-374.20068359375,127,-4.0,-12.0,135,-2.439560890197754,-0.029831089079380035,0.2863856554031372,0.030794693157076836,0.006805877201259136,0.0009327029692940414,-0.9995021820068359
