timestamp,stateEstimate.vx,stateEstimate.vy,stateEstimate.vz,acc.x,acc.y,acc.z,gyro.x,gyro.y,gyro.z,range.zrange,mtf02.dpixelX,mtf02.dpixelY,mtf02.flowQual,locSrv.x,locSrv.y,locSrv.z,locSrv.qx,locSrv.qy,locSrv.qz,locSrv.qw
34846.345,0.002883578184992075,-0.010495364665985107,0.004134239163249731,0.023083625361323357,-0.042894575744867325,0.9968584775924683,-0.022370673716068268,-0.3125144839286804,-0.07390633225440979,20,0.0,0.0,161,-0.006041067652404308,0.04311750829219818,0.1494167000055313,-0.007610784377902746,0.005126346834003925,-0.012729667127132416,0.9998769164085388
34848.367,0.002883578184992075,-0.010495364665985107,0.004134239163249731,0.023426122963428497,-0.04201788827776909,0.9972113966941833,0.10336841642856598,-0.09742100536823273,-0.08992038667201996,20,0.0,0.0,161,-0.006041067652404308,0.04311750829219818,0.1494167000055313,-0.007610784377902746,0.005126346834003925,-0.012729667127132416,0.9998769164085388
34850.306,0.002883578184992075,-0.010495364665985107,0.004134239163249731,0.02426438219845295,-0.041518740355968475,0.9976907968521118,0.11154866218566895,-0.009558283723890781,-0.020380541682243347,20,0.0,0.0,161,-0.0059834495186805725,0.04307763651013374,0.14944149553775787,-0.007470517419278622,0.005349691491574049,-0.012731307186186314,0.9998767971992493
34852.287,0.0029491062741726637,-0.010652702301740646,0.017510918900370598,0.02499653771519661,-0.04132987558841705,0.9980773329734802,0.06694440543651581,-0.07770422846078873,0.015899203717708588,20,0.0,0.0,161,-0.0059834495186805725,0.04307763651013374,0.14944149553775787,-0.007470517419278622,0.005349691491574049,-0.012731307186186314,0.9998767971992493
34854.326,0.0029491062741726637,-0.010652702301740646,0.017510918900370598,0.02482816018164158,-0.04168890789151192,0.9981358051300049,0.024417627602815628,-0.24252310395240784,0.007787046022713184,20,0.0,0.0,161,-0.0056746103800833225,0.04266174137592316,0.14941637217998505,-0.006015254184603691,0.006597141269594431,-0.012646254152059555,0.9998802542686462
34856.248,0.0029491062741726637,-0.010652702301740646,0.017510918900370598,0.023938607424497604,-0.04243467375636101,0.9979336857795715,0.007233313284814358,-0.1622941493988037,0.09550274908542633,20,0.0,0.0,161,-0.0056746103800833225,0.04266174137592316,0.14941637217998505,-0.006015254184603691,0.006597141269594431,-0.012646254152059555,0.9998802542686462
34858.263,0.0027341258246451616,-0.010425089858472347,-0.014927060343325138,0.023127835243940353,-0.0431971475481987,0.9978349804878235,0.07073421031236649,0.11345948278903961,0.10299092531204224,20,0.0,0.0,161,-0.0056746103800833225,0.04266174137592316,0.14941637217998505,-0.006015254184603691,0.006597141269594431,-0.012646254152059555,0.9998802542686462
34860.211,0.0030525410547852516,-0.010786065831780434,-0.01501830667257309,0.022501587867736816,-0.04393627494573593,0.998127281665802,-0.012912639416754246,0.20805291831493378,-0.020823530852794647,20,0.0,0.0,161,-0.006057156249880791,0.04305267706513405,0.14940181374549866,-0.007321096025407314,0.005174180492758751,-0.012742373161017895,0.9998786449432373
34862.192,0.002895010868087411,-0.010415135882794857,-0.0025743176229298115,0.021886883303523064,-0.04442751035094261,0.998599648475647,-0.029024174436926842,0.13835646212100983,-0.0933837816119194,20,0.0,0.0,161,-0.006057156249880791,0.04305267706513405,0.14940181374549866,-0.007321096025407314,0.005174180492758751,-0.012742373161017895,0.9998786449432373
34864.221,0.002895010868087411,-0.010415135882794857,-0.0025743176229298115,0.021585309877991676,-0.0443229153752327,0.9988999366760254,0.055933550000190735,0.07345978915691376,-0.11616086214780807,20,0.0,0.0,161,-0.006057156249880791,0.04305267706513405,0.14940181374549866,-0.007321096025407314,0.005174180492758751,-0.012742373161017895,0.9998786449432373
34866.163,0.002895010868087411,-0.010415135882794857,-0.0025743176229298115,0.021634278818964958,-0.04379671812057495,0.9991685152053833,0.0886741504073143,0.10668608546257019,-0.08887957036495209,20,0.0,0.0,161,-0.005755129735916853,0.04274357855319977,0.14942000806331635,-0.006244229152798653,0.006317705847322941,-0.012854980304837227,0.9998779296875
34868.166,0.002760290401056409,-0.01010120753198862,0.00949501059949398,0.021711653098464012,-0.04355330765247345,0.999395489692688,0.10382762551307678,0.13387277722358704,0.03311668708920479,20,0.0,0.0,161,-0.005755129735916853,0.04274357855319977,0.14942000806331635,-0.006244229152798653,0.006317705847322941,-0.012854980304837227,0.9998779296875
34870.116,0.0028479283209890127,-0.01066613756120205,0.009483400732278824,0.02186398394405842,-0.04387056455016136,0.9992671012878418,0.0503818579018116,0.1809469759464264,0.07355055958032608,20,0.0,0.0,161,-0.005755129735916853,0.04274357855319977,0.14942000806331635,-0.006244229152798653,0.006317705847322941,-0.012854980304837227,0.9998779296875
34872.095,0.0028479283209890127,-0.01066613756120205,0.009483400732278824,0.02234744466841221,-0.04439001902937889,0.9989216923713684,0.06344053894281387,0.15787094831466675,0.018594274297356606,20,0.0,0.0,161,-0.006211584899574518,0.04311559721827507,0.1493477076292038,-0.007629531901329756,0.004559914581477642,-0.012972181662917137,0.9998763799667358
34874.134,0.0026680619921535254,-0.010256215929985046,0.023085014894604683,0.023044990375638008,-0.04473225027322769,0.9983618855476379,0.12622720003128052,-0.03052196465432644,-0.10882345587015152,20,0.0,0.0,161,-0.006211584899574518,0.04311559721827507,0.1493477076292038,-0.007629531901329756,0.004559914581477642,-0.012972181662917137,0.9998763799667358
34876.07,0.0020227795466780663,-0.0092470096424222,0.023075729608535767,0.02364378795027733,-0.044591471552848816,0.9977170825004578,0.14323776960372925,-0.18608082830905914,-0.19426774978637695,20,0.0,0.0,161,-0.006089536473155022,0.0431593656539917,0.14944642782211304,-0.007736276835203171,0.004999454133212566,-0.01272139698266983,0.9998767375946045
34878.071,0.0026025387924164534,-0.010070192627608776,-0.010818886570632458,0.024218440055847168,-0.04425457492470741,0.9971384406089783,0.14182081818580627,-0.13832738995552063,-0.17384621500968933,20,0.0,0.0,161,-0.006089536473155022,0.0431593656539917,0.14944642782211304,-0.007736276835203171,0.004999454133212566,-0.01272139698266983,0.9998767375946045
34880.02,0.002752801403403282,-0.010648095980286598,-0.010834300890564919,0.02479569986462593,-0.04410393536090851,0.9966957569122314,0.09972924739122391,0.00979711301624775,-0.07393059879541397,20,0.0,0.0,161,-0.006089536473155022,0.0431593656539917,0.14944642782211304,-0.007736276835203171,0.004999454133212566,-0.01272139698266983,0.9998767375946045
34882.001,0.002752801403403282,-0.010648095980286598,-0.010834300890564919,0.02513088658452034,-0.043888092041015625,0.9964591264724731,-4.039746636408381e-05,0.1445324718952179,0.04993956908583641,20,0.0,0.0,161,-0.005792425479739904,0.04280170053243637,0.14944009482860565,-0.006367281544953585,0.006208511069417,-0.012832539156079292,0.9998781681060791
34884.037,0.002605245914310217,-0.010306448675692081,0.0017182790907099843,0.025070957839488983,-0.04366369917988777,0.9964258670806885,0.031883589923381805,0.13782435655593872,0.04073440656065941,20,0.0,0.0,161,-0.005792425479739904,0.04280170053243637,0.14944009482860565,-0.006367281544953585,0.006208511069417,-0.012832539156079292,0.9998781681060791
34885.963,0.002605245914310217,-0.010306448675692081,0.0017182790907099843,0.02480066940188408,-0.04365376755595207,0.9962834715843201,0.056244924664497375,-0.060764387249946594,-0.03681079298257828,20,0.0,0.0,161,-0.005792425479739904,0.04280170053243637,0.14944009482860565,-0.006367281544953585,0.006208511069417,-0.012832539156079292,0.9998781681060791
34887.988,0.002605245914310217,-0.010306448675692081,0.0017182790907099843,0.024459343403577805,-0.04361068084836006,0.995987057685852,0.15863534808158875,-0.16673922538757324,-0.0984610915184021,20,0.0,0.0,161,-0.006114289630204439,0.04311555624008179,0.14939862489700317,-0.007583945523947477,0.004827739670872688,-0.01275186613202095,0.9998782873153687
34889.924,0.002791105769574642,-0.010430736467242241,0.015630723908543587,0.024048881605267525,-0.043539322912693024,0.995831310749054,0.34629327058792114,-0.03925468027591705,-0.21493743360042572,20,0.0,0.0,161,-0.006114289630204439,0.04311555624008179,0.14939862489700317,-0.007583945523947477,0.004827739670872688,-0.01275186613202095,0.9998782873153687
34891.905,0.002791105769574642,-0.010430736467242241,0.015630723908543587,0.023364953696727753,-0.043713100254535675,0.9958831667900085,0.26058200001716614,0.05483906343579292,-0.2932833433151245,20,0.0,0.0,161,-0.006114289630204439,0.04311555624008179,0.14939862489700317,-0.007583945523947477,0.004827739670872688,-0.01275186613202095,0.9998782873153687
34893.938,0.002791105769574642,-0.010430736467242241,0.015630723908543587,0.022440742701292038,-0.044197313487529755,0.9959104061126709,0.03540097177028656,0.08677568286657333,-0.2455967664718628,20,0.0,0.0,161,-0.006093797739595175,0.04315060004591942,0.14940766990184784,-0.0076680174097418785,0.004980822559446096,-0.0127554377540946,0.999876856803894
34895.87,0.002791105769574642,-0.010430736467242241,0.015630723908543587,0.02167525142431259,-0.044640425592660904,0.9959138631820679,0.034493472427129745,0.17768314480781555,-0.09010592103004456,20,0.0,0.0,162,-0.006093797739595175,0.04315060004591942,0.14940766990184784,-0.0076680174097418785,0.004980822559446096,-0.0127554377540946,0.999876856803894
34897.895,0.0028343957383185625,-0.010172524489462376,-0.017162112519145012,0.0213030818849802,-0.04484391584992409,0.9960767030715942,0.0478685162961483,0.13779394328594208,0.13615110516548157,20,0.0,0.0,162,-0.006093797739595175,0.04315060004591942,0.14940766990184784,-0.0076680174097418785,0.004980822559446096,-0.0127554377540946,0.999876856803894
34899.828,0.0030326624400913715,-0.010735624469816685,-0.017444731667637825,0.02117227390408516,-0.04495447874069214,0.9963723421096802,-0.048035819083452225,-0.0005043198470957577,0.1679365485906601,20,0.0,0.0,162,-0.00610361760482192,0.043147433549165726,0.14941810071468353,-0.007643354125320911,0.004996060393750668,-0.012764442712068558,0.999876856803894
34901.822,0.0028600103687494993,-0.010335835628211498,-0.004482469987124205,0.020906569436192513,-0.04496785253286362,0.9968022108078003,-0.07184166461229324,-0.02194872871041298,0.022072669118642807,20,0.0,0.0,162,-0.00610361760482192,0.043147433549165726,0.14941810071468353,-0.007643354125320911,0.004996060393750668,-0.012764442712068558,0.999876856803894
34903.852,0.0028600103687494993,-0.010335835628211498,-0.004482469987124205,0.020495468750596046,-0.04455479234457016,0.9972456693649292,-0.05116606503725052,0.09582973271608353,-0.21760131418704987,20,0.0,0.0,162,-0.006101248785853386,0.04314527288079262,0.14935430884361267,-0.0076959338039159775,0.004941066727042198,-0.012796800583600998,0.9998763799667358
34905.772,0.0026956889778375626,-0.009958937764167786,0.008075341582298279,0.02023841068148613,-0.0438857227563858,0.9976498484611511,-0.06841954588890076,0.12508563697338104,-0.29327234625816345,20,0.0,0.0,162,-0.006101248785853386,0.04314527288079262,0.14935430884361267,-0.0076959338039159775,0.004941066727042198,-0.012796800583600998,0.9998763799667358
34907.787,0.0026956889778375626,-0.009958937764167786,0.008075341582298279,0.020441798493266106,-0.043331973254680634,0.997999370098114,-0.04358785226941109,0.19248813390731812,-0.16070730984210968,20,0.0,0.0,162,-0.006101248785853386,0.04314527288079262,0.14935430884361267,-0.0076959338039159775,0.004941066727042198,-0.012796800583600998,0.9998763799667358
34909.736,0.0026719216257333755,-0.01057854201644659,0.007890266366302967,0.020823687314987183,-0.04273929074406624,0.998450517654419,-0.015331041999161243,0.18608108162879944,0.08552031964063644,20,0.0,0.0,162,-0.005936768371611834,0.0427735298871994,0.14937524497509003,-0.006320602260529995,0.005660109221935272,-0.012982887215912342,0.999879777431488
34911.717,0.0024947109632194042,-0.010195747017860413,0.02201157808303833,0.020871901884675026,-0.042320266366004944,0.9989986419677734,0.16675344109535217,0.04747631400823593,0.10709169507026672,20,0.0,0.0,162,-0.005936768371611834,0.0427735298871994,0.14937524497509003,-0.006320602260529995,0.005660109221935272,-0.012982887215912342,0.999879777431488
34913.75,0.0024947109632194042,-0.010195747017860413,0.02201157808303833,0.020869718864560127,-0.042338740080595016,0.9992479681968689,0.2246665358543396,-0.15397074818611145,-0.05595959350466728,20,0.0,0.0,162,-0.005936768371611834,0.0427735298871994,0.14937524497509003,-0.006320602260529995,0.005660109221935272,-0.012982887215912342,0.999879777431488
34915.694,0.0024947109632194042,-0.010195747017860413,0.02201157808303833,0.021125616505742073,-0.0423690490424633,0.9988279342651367,0.1129981130361557,-0.3588483929634094,-0.0044350456446409225,20,0.0,0.0,162,-0.006072811782360077,0.043094515800476074,0.14945150911808014,-0.007512014824897051,0.004922589752823114,-0.012774836272001266,0.9998781085014343
34917.69,0.0024947109632194042,-0.010195747017860413,0.02201157808303833,0.021564655005931854,-0.04231991991400719,0.9982824921607971,-0.008112031035125256,-0.4933161735534668,0.11590300500392914,20,0.0,0.0,162,-0.006072811782360077,0.043094515800476074,0.14945150911808014,-0.007512014824897051,0.004922589752823114,-0.012774836272001266,0.9998781085014343
34919.64,0.002382941311225295,-0.01056076679378748,-0.012360528111457825,0.02201104536652565,-0.042264990508556366,0.9980670809745789,0.023338770493865013,-0.24501881003379822,-0.025283509865403175,20,0.0,0.0,162,-0.006072811782360077,0.043094515800476074,0.14945150911808014,-0.007512014824897051,0.004922589752823114,-0.012774836272001266,0.9998781085014343
34921.62,0.002382941311225295,-0.01056076679378748,-0.012360528111457825,0.022301288321614265,-0.04238590970635414,0.997626006603241,0.051213428378105164,0.07248146086931229,-0.16329942643642426,20,0.0,0.0,162,-0.005920465104281902,0.04281926900148392,0.14937764406204224,-0.006668416317552328,0.005621294490993023,-0.012707934714853764,0.9998812079429626
34923.652,0.002223704941570759,-0.010205085389316082,0.0004929296555928886,0.02224232256412506,-0.04271604120731354,0.9967884421348572,-0.04009576886892319,0.12013676017522812,-0.06899392604827881,20,0.0,0.0,162,-0.005920465104281902,0.04281926900148392,0.14937764406204224,-0.006668416317552328,0.005621294490993023,-0.012707934714853764,0.9998812079429626
34925.585,0.002223704941570759,-0.010205085389316082,0.0004929296555928886,0.021892383694648743,-0.04317236691713333,0.9960957169532776,-0.11120226234197617,0.005936802830547094,0.11120428889989853,20,0.0,0.0,162,-0.006025980226695538,0.04297676682472229,0.14936260879039764,-0.007149133365601301,0.005257369950413704,-0.012837394140660763,0.9998782277107239
34927.616,0.00206745695322752,-0.00985241774469614,0.012951678596436977,0.02150881290435791,-0.04352324455976486,0.9960216283798218,-0.09447962790727615,-0.1619085669517517,0.07764460891485214,20,0.0,0.0,162,-0.006025980226695538,0.04297676682472229,0.14936260879039764,-0.007149133365601301,0.005257369950413704,-0.012837394140660763,0.9998782277107239
34929.545,0.0021763471886515617,-0.010294231586158276,0.012782848440110683,0.021290002390742302,-0.04390563443303108,0.996507465839386,0.020758388563990593,-0.17156824469566345,-0.10406078398227692,20,0.0,0.0,162,-0.006025980226695538,0.04297676682472229,0.14936260879039764,-0.007149133365601301,0.005257369950413704,-0.012837394140660763,0.9998782277107239
34931.526,0.0021763471886515617,-0.010294231586158276,0.012782848440110683,0.02136296033859253,-0.044422000646591187,0.9969378709793091,0.13624942302703857,0.01461721770465374,-0.10041194409132004,20,0.0,0.0,162,-0.0061152903363108635,0.04315849393606186,0.14934511482715607,-0.007735003251582384,0.004854117054492235,-0.012875095009803772,0.9998754858970642
34933.556,0.001995399361476302,-0.009870968759059906,0.026718365028500557,0.021636253222823143,-0.044756289571523666,0.9966854453086853,0.23578983545303345,0.13029029965400696,0.030432874336838722,20,0.0,0.0,162,-0.0061152903363108635,0.04315849393606186,0.14934511482715607,-0.007735003251582384,0.004854117054492235,-0.012875095009803772,0.9998754858970642
34935.491,0.001995399361476302,-0.009870968759059906,0.026718365028500557,0.021808292716741562,-0.04464328661561012,0.9961368441581726,0.13869130611419678,0.12838301062583923,-0.004258659202605486,20,0.0,0.0,162,-0.0061152903363108635,0.04315849393606186,0.14934511482715607,-0.007735003251582384,0.004854117054492235,-0.012875095009803772,0.9998754858970642
34937.51,0.001995399361476302,-0.009870968759059906,0.026718365028500557,0.021630851551890373,-0.04444406181573868,0.9960464835166931,-0.07137032598257065,0.1645388901233673,-0.15658146142959595,20,0.0,0.0,162,-0.0061653112061321735,0.043167319148778915,0.14935782551765442,-0.007777172140777111,0.0046499972231686115,-0.012855054810643196,0.9998763799667358
34939.45,0.0022735795937478542,-0.01043473370373249,-0.00881144404411316,0.02140766754746437,-0.044324394315481186,0.996363639831543,0.024180881679058075,0.0810389518737793,-0.25265759229660034,20,0.0,0.0,162,-0.0061653112061321735,0.043167319148778915,0.14935782551765442,-0.007777172140777111,0.0046499972231686115,-0.012855054810643196,0.9998763799667358
34941.43,0.0022735795937478542,-0.01043473370373249,-0.00881144404411316,0.021793363615870476,-0.04413747042417526,0.9967819452285767,0.19296002388000488,-0.11090217530727386,-0.25336751341819763,20,0.0,0.0,162,-0.0061653112061321735,0.043167319148778915,0.14935782551765442,-0.007777172140777111,0.0046499972231686115,-0.012855054810643196,0.9998763799667358
34943.456,0.0022735795937478542,-0.01043473370373249,-0.00881144404411316,0.022717373445630074,-0.04396360367536545,0.9970066547393799,0.045049093663692474,-0.1823563426733017,-0.22766678035259247,20,0.0,0.0,162,-0.006188245490193367,0.04316534101963043,0.14939475059509277,-0.007850448600947857,0.004565835930407047,-0.012882943265140057,0.9998758435249329
34945.393,0.0020990599878132343,-0.010040560737252235,0.004028819035738707,0.023877359926700592,-0.04397309198975563,0.9970273375511169,-0.03814563527703285,0.035995908081531525,-0.16336409747600555,20,0.0,0.0,162,-0.006188245490193367,0.04316534101963043,0.14939475059509277,-0.007850448600947857,0.004565835930407047,-0.012882943265140057,0.9998758435249329
34947.413,0.0020990599878132343,-0.010040560737252235,0.004028819035738707,0.024889685213565826,-0.0439630001783371,0.99680095911026,0.041228245943784714,0.1995832324028015,-0.005503369495272636,20,0.0,0.0,162,-0.006188245490193367,0.04316534101963043,0.14939475059509277,-0.007850448600947857,0.004565835930407047,-0.012882943265140057,0.9998758435249329
34949.352,0.0020990599878132343,-0.010040560737252235,0.004028819035738707,0.0255120899528265,-0.04388938471674919,0.996591329574585,0.03984967619180679,0.13197959959506989,0.04527426138520241,20,0.0,0.0,162,-0.0061246976256370544,0.043140824884176254,0.14935511350631714,-0.007698614150285721,0.004844086244702339,-0.012832081876695156,0.9998763799667358
34951.337,0.00210219225846231,-0.010181277059018612,0.01811525970697403,0.0255721565335989,-0.04402933642268181,0.9965722560882568,0.11239152401685715,0.0876028910279274,-0.03314642235636711,20,0.0,0.0,162,-0.0061246976256370544,0.043140824884176254,0.14935511350631714,-0.007698614150285721,0.004844086244702339,-0.012832081876695156,0.9998763799667358
34953.367,0.00210219225846231,-0.010181277059018612,0.01811525970697403,0.02509044110774994,-0.04445889592170715,0.9966334104537964,0.2705124318599701,0.09470521658658981,-0.08979286253452301,20,0.0,0.0,162,-0.006078870967030525,0.04294855520129204,0.14937272667884827,-0.007063171826303005,0.0051571098156273365,-0.012826723046600819,0.9998795390129089
34955.305,0.0019248047610744834,-0.009792911820113659,0.03188920021057129,0.02449931390583515,-0.04487108066678047,0.9969066977500916,0.29363808035850525,0.06970728188753128,-0.13426551222801208,20,0.0,0.0,162,-0.006078870967030525,0.04294855520129204,0.14937272667884827,-0.007063171826303005,0.0051571098156273365,-0.012826723046600819,0.9998795390129089
34957.317,0.0019248047610744834,-0.009792911820113659,0.03188920021057129,0.02413242496550083,-0.04498610273003578,0.9973780512809753,0.10622112452983856,-0.08825711905956268,-0.12422852963209152,20,0.0,0.0,162,-0.006078870967030525,0.04294855520129204,0.14937272667884827,-0.007063171826303005,0.0051571098156273365,-0.012826723046600819,0.9998795390129089
34959.257,0.0014561059651896358,-0.008866400457918644,0.031882304698228836,0.024087125435471535,-0.04538677632808685,0.9979255199432373,-0.04338448494672775,-0.32872018218040466,-0.14779123663902283,20,0.0,0.0,162,-0.005905783269554377,0.04288995638489723,0.14940477907657623,-0.006853336934000254,0.005653635133057833,-0.012781186029314995,0.9998788833618164
34961.246,0.002571090357378125,-0.010509788990020752,-0.008840179070830345,0.024151386693120003,-0.045965950936079025,0.9982097148895264,-0.028290757909417152,-0.3505023121833801,-0.2827814817428589,20,0.0,0.0,162,-0.005905783269554377,0.04288995638489723,0.14940477907657623,-0.006853336934000254,0.005653635133057833,-0.012781186029314995,0.9998788833618164
34963.267,0.002571090357378125,-0.010509788990020752,-0.008840179070830345,0.02411174774169922,-0.04618099704384804,0.9979126453399658,-0.014283574186265469,-0.13445091247558594,-0.13726994395256042,20,0.0,0.0,162,-0.005905783269554377,0.04288995638489723,0.14940477907657623,-0.006853336934000254,0.005653635133057833,-0.012781186029314995,0.9998788833618164
34965.198,0.002571090357378125,-0.010509788990020752,-0.008840179070830345,0.024138981476426125,-0.04606613889336586,0.9972606301307678,-0.005398442503064871,0.06098736450076103,0.06791554391384125,20,0.0,0.0,162,-0.006079816725105047,0.043099161237478256,0.14938804507255554,-0.0075734700076282024,0.004950356669723988,-0.012857140973210335,0.9998764991760254
34967.229,0.0024179101455956697,-0.010156386531889439,0.00300664477981627,0.02405673637986183,-0.046006862074136734,0.9968582987785339,-0.053169719874858856,0.19628199934959412,0.0042209746316075325,20,0.0,0.0,162,-0.006079816725105047,0.043099161237478256,0.14938804507255554,-0.0075734700076282024,0.004950356669723988,-0.012857140973210335,0.9998764991760254
34969.169,0.002724053803831339,-0.010910920798778534,0.002906243782490492,0.02359977550804615,-0.04611314460635185,0.9968578219413757,0.04839429631829262,0.24045449495315552,-0.07763755321502686,20,0.0,0.0,162,-0.006079816725105047,0.043099161237478256,0.14938804507255554,-0.0075734700076282024,0.004950356669723988,-0.012857140973210335,0.9998764991760254
34971.141,0.002724053803831339,-0.010910920798778534,0.002906243782490492,0.022970587015151978,-0.045848727226257324,0.9970768094062805,0.06270121783018112,0.10085077583789825,-0.11422421783208847,20,0.0,0.0,162,-0.006056101992726326,0.04308408126235008,0.14944988489151,-0.00749929016456008,0.005177096463739872,-0.012807127088308334,0.9998765587806702
34973.172,0.0025543703231960535,-0.010513572953641415,0.016108307987451553,0.022318078204989433,-0.045401882380247116,0.9971760511398315,-0.018287573009729385,-0.09033841639757156,-0.12367390096187592,20,0.0,0.0,162,-0.006056101992726326,0.04308408126235008,0.14944988489151,-0.00749929016456008,0.005177096463739872,-0.012807127088308334,0.9998765587806702
34975.108,0.0025543703231960535,-0.010513572953641415,0.016108307987451553,0.0218471921980381,-0.04525446891784668,0.9973087906837463,-0.00036603325861506164,-0.23997969925403595,-0.05066755786538124,20,0.0,0.0,162,-0.006186932325363159,0.043157804757356644,0.14937472343444824,-0.007844843901693821,0.004648357164114714,-0.012789061293005943,0.9998766779899597
34977.131,0.0025543703231960535,-0.010513572953641415,0.016108307987451553,0.021584374830126762,-0.04514220356941223,0.9974534511566162,0.15978850424289703,-0.23111788928508759,-0.0045635635033249855,20,0.0,0.0,162,-0.006186932325363159,0.043157804757356644,0.14937472343444824,-0.007844843901693821,0.004648357164114714,-0.012789061293005943,0.9998766779899597
34979.065,0.0027083121240139008,-0.011261393316090107,-0.020839110016822815,0.021303333342075348,-0.04471362382173538,0.9974505305290222,0.21327120065689087,-0.06234758719801903,0.01801622472703457,20,0.0,0.0,162,-0.006186932325363159,0.043157804757356644,0.14937472343444824,-0.007844843901693821,0.004648357164114714,-0.012789061293005943,0.9998766779899597
34981.047,0.0027083121240139008,-0.011261393316090107,-0.020839110016822815,0.020979641005396843,-0.04384103789925575,0.9973834753036499,0.1591288149356842,0.13040760159492493,-0.044491592794656754,20,0.0,0.0,162,-0.0060191978700459,0.043095119297504425,0.14944817125797272,-0.0074386089108884335,0.0051840003579854965,-0.012958629988133907,0.9998749494552612
34983.077,0.0025672472547739744,-0.010914062149822712,-0.009374713525176048,0.02039869874715805,-0.04278842359781265,0.9974062442779541,0.09937084466218948,0.23355869948863983,-0.06799253821372986,20,0.0,0.0,162,-0.0060191978700459,0.043095119297504425,0.14944817125797272,-0.0074386089108884335,0.0051840003579854965,-0.012958629988133907,0.9998749494552612
34985.008,0.0025672472547739744,-0.010914062149822712,-0.009374713525176048,0.019688235595822334,-0.042148660868406296,0.9976940155029297,-0.11510183662176132,0.19743773341178894,-0.05569324642419815,20,0.0,0.0,162,-0.0060191978700459,0.043095119297504425,0.14944817125797272,-0.0074386089108884335,0.0051840003579854965,-0.012958629988133907,0.9998749494552612
34987.02,0.0025672472547739744,-0.010914062149822712,-0.009374713525176048,0.019566189497709274,-0.04157362878322601,0.9981741905212402,-0.14566311240196228,0.09542273730039597,-0.10733252763748169,20,0.0,0.0,162,-0.006125731393694878,0.043100472539663315,0.14941264688968658,-0.007528830319643021,0.004880198277533054,-0.012837274931371212,0.999877393245697
34988.97,0.002384255873039365,-0.011080591939389706,0.0016281434800475836,0.019872793927788734,-0.04095521941781044,0.9988722801208496,-0.060647644102573395,0.146440789103508,-0.07686883211135864,20,0.0,0.0,162,-0.006125731393694878,0.043100472539663315,0.14941264688968658,-0.007528830319643021,0.004880198277533054,-0.012837274931371212,0.999877393245697
34990.959,0.002384255873039365,-0.011080591939389706,0.0016281434800475836,0.02024299092590809,-0.04059924557805061,0.999334990978241,-0.007291669026017189,0.1835445761680603,-0.04584667086601257,20,0.0,0.0,162,-0.006125731393694878,0.043100472539663315,0.14941264688968658,-0.007528830319643021,0.004880198277533054,-0.012837274931371212,0.999877393245697
34992.989,0.002384255873039365,-0.011080591939389706,0.0016281434800475836,0.020471787080168724,-0.04042999446392059,0.9989621043205261,0.10052948445081711,0.10605873167514801,-0.06985309720039368,20,0.0,0.0,162,-0.0060463352128863335,0.04306245222687721,0.14945100247859955,-0.007421031128615141,0.005166095215827227,-0.012814028188586235,0.9998770952224731
34994.913,0.0022320325952023268,-0.010711751878261566,0.0140656353905797,0.020801641047000885,-0.04062088206410408,0.9982602000236511,0.14304476976394653,0.0523252934217453,0.022387415170669556,20,0.0,0.0,162,-0.0060463352128863335,0.04306245222687721,0.14945100247859955,-0.007421031128615141,0.005166095215827227,-0.012814028188586235,0.9998770952224731
34996.977,0.0022320325952023268,-0.010711751878261566,0.0140656353905797,0.021253393962979317,-0.04137273132801056,0.9980114698410034,0.16795186698436737,0.16400764882564545,0.11559534072875977,20,0.0,0.0,162,-0.006114616058766842,0.04309777542948723,0.14936356246471405,-0.007525046356022358,0.004877676256000996,-0.01273780781775713,0.9998786449432373
34998.871,0.0022320325952023268,-0.010711751878261566,0.0140656353905797,0.021507039666175842,-0.04215382784605026,0.9981081485748291,0.18520855903625488,0.32203376293182373,0.016563041135668755,20,0.0,0.0,162,-0.006114616058766842,0.04309777542948723,0.14936356246471405,-0.007525046356022358,0.004877676256000996,-0.01273780781775713,0.9998786449432373
35000.853,0.0023794646840542555,-0.010778366588056087,-0.016135571524500847,0.021677955985069275,-0.04257800057530403,0.998103678226471,0.15086407959461212,0.20250844955444336,-0.04276162013411522,20,0.0,0.0,162,-0.006114616058766842,0.04309777542948723,0.14936356246471405,-0.007525046356022358,0.004877676256000996,-0.01273780781775713,0.9998786449432373
35002.888,0.0023794646840542555,-0.010778366588056087,-0.016135571524500847,0.022162552922964096,-0.042842648923397064,0.9978952407836914,0.040056612342596054,0.1331925243139267,-0.08039547502994537,20,0.0,0.0,162,-0.00607135146856308,0.04310785233974457,0.14942097663879395,-0.007576434873044491,0.0050929030403494835,-0.012848259881138802,0.9998757839202881
35004.821,0.0022337327245622873,-0.01042923517525196,-0.004575331695377827,0.023103810846805573,-0.043206747621297836,0.9975758194923401,-0.10544780641794205,0.26800620555877686,-0.1569480150938034,20,0.0,0.0,162,-0.00607135146856308,0.04310785233974457,0.14942097663879395,-0.007576434873044491,0.0050929030403494835,-0.012848259881138802,0.9998757839202881
35006.883,0.0022337327245622873,-0.01042923517525196,-0.004575331695377827,0.02394847758114338,-0.04369279742240906,0.9972258806228638,-0.16092759370803833,0.28271302580833435,-0.13697782158851624,20,0.0,0.0,162,-0.00607135146856308,0.04310785233974457,0.14942097663879395,-0.007576434873044491,0.0050929030403494835,-0.012848259881138802,0.9998757839202881
35008.776,0.0022337327245622873,-0.01042923517525196,-0.004575331695377827,0.024222886189818382,-0.04394380748271942,0.9968729019165039,-0.11617247015237808,0.10827052593231201,-0.06557252258062363,20,0.0,0.0,162,-0.0061883446760475636,0.04316452145576477,0.14937101304531097,-0.007727440446615219,0.0047719539143145084,-0.01275748573243618,0.999877393245697
35010.758,1.7418804418412037e-05,-0.006135666277259588,0.006285957992076874,0.024607360363006592,-0.04413387179374695,0.9966493844985962,0.09492949396371841,0.021288560703396797,-0.0036307445261627436,20,0.0,0.0,162,-0.0061883446760475636,0.04316452145576477,0.14937101304531097,-0.007727440446615219,0.0047719539143145084,-0.01275748573243618,0.999877393245697
35012.797,1.7418804418412037e-05,-0.006135666277259588,0.006285957992076874,0.025151070207357407,-0.044833242893218994,0.9968482851982117,0.2636086940765381,0.13982819020748138,-0.19915200769901276,20,0.0,0.0,162,-0.0061883446760475636,0.04316452145576477,0.14937101304531097,-0.007727440446615219,0.0047719539143145084,-0.01275748573243618,0.999877393245697
35014.719,1.7418804418412037e-05,-0.006135666277259588,0.006285957992076874,0.02522064372897148,-0.0453033484518528,0.9976055026054382,0.14600643515586853,0.3348393738269806,-0.5851858258247375,20,0.0,0.0,162,-0.006091760471463203,0.043107327073812485,0.14942677319049835,-0.007610993925482035,0.0050032781437039375,-0.012839016504585743,0.9998761415481567
35016.776,-0.00014194347022566944,-0.005764208268374205,0.018756430596113205,0.025955267250537872,-0.04446160048246384,0.9983054995536804,0.03725637495517731,0.45141831040382385,-0.7929863333702087,20,0.0,0.0,162,-0.006091760471463203,0.043107327073812485,0.14942677319049835,-0.007610993925482035,0.0050032781437039375,-0.012839016504585743,0.9998761415481567
35018.69,-0.00014194347022566944,-0.005764208268374205,0.018756430596113205,0.028323154896497726,-0.04373037442564964,0.9989442825317383,0.07523005455732346,0.45725324749946594,-0.8598081469535828,20,0.0,0.0,162,-0.006091760471463203,0.043107327073812485,0.14942677319049835,-0.007610993925482035,0.0050032781437039375,-0.012839016504585743,0.9998761415481567
35020.661,-0.00014194347022566944,-0.005764208268374205,0.018756430596113205,0.03177180141210556,-0.04441606625914574,0.9992173910140991,-0.055859290063381195,0.5856515765190125,-1.33197021484375,20,0.0,0.0,162,-0.006022950634360313,0.043058477342128754,0.14942708611488342,-0.0074395774863660336,0.005337303038686514,-0.01279199868440628,0.9998762607574463
35022.698,-0.0009234047611244023,-0.0025746216997504234,-0.016322772949934006,0.03587280958890915,-0.046252667903900146,0.9989937543869019,-0.24501462280750275,0.8673468828201294,-2.9542603492736816,20,0.0,0.0,162,-0.006022950634360313,0.043058477342128754,0.14942708611488342,-0.0074395774863660336,0.005337303038686514,-0.01279199868440628,0.9998762607574463
35024.625,-0.0009234047611244023,-0.0025746216997504234,-0.016322772949934006,0.03937667980790138,-0.047842804342508316,0.9986631870269775,-0.28538790345191956,1.137563943862915,-5.335402488708496,20,0.0,0.0,162,-0.0057401470839977264,0.04274772107601166,0.14941591024398804,-0.006273659877479076,0.00639336509630084,-0.012720590457320213,0.999879002571106
35026.684,-0.0010596696520224214,-0.002278688130900264,-0.005487613379955292,0.03933411464095116,-0.047433041036129,0.9979405999183655,-0.3147087097167969,1.2291792631149292,-7.180271148681641,20,0.0,0.0,162,-0.0057401470839977264,0.04274772107601166,0.14941591024398804,-0.006273659877479076,0.00639336509630084,-0.012720590457320213,0.999879002571106
35028.586,-0.0010596696520224214,-0.002278688130900264,-0.005487613379955292,0.035694561898708344,-0.04640218988060951,0.9963478446006775,-0.3537311553955078,1.217765212059021,-7.845409870147705,20,0.0,0.0,162,-0.0057401470839977264,0.04274772107601166,0.14941591024398804,-0.006273659877479076,0.00639336509630084,-0.012720590457320213,0.999879002571106
35030.567,-0.0029774620197713375,0.0015329985180869699,-0.005696017295122147,0.03128037601709366,-0.04771656543016434,0.9948182702064514,-0.21722851693630219,1.1023515462875366,-8.259455680847168,20,0.0,0.0,162,-0.005738868843764067,0.04279302805662155,0.14941217005252838,-0.006449015811085701,0.006297156680375338,-0.012714757584035397,0.9998786449432373
35032.605,-0.0031321111600846052,0.001867893966846168,0.006378938909620047,0.03061106614768505,-0.05072658136487007,0.9930466413497925,-0.1944178193807602,1.100335717201233,-9.348607063293457,20,0.0,0.0,162,-0.005738868843764067,0.04279302805662155,0.14941217005252838,-0.006449015811085701,0.006297156680375338,-0.012714757584035397,0.9998786449432373
35034.529,-0.0031321111600846052,0.001867893966846168,0.006378938909620047,0.03478683903813362,-0.05011345446109772,0.9918292760848999,-0.29112228751182556,1.4897785186767578,-9.506529808044434,20,0.0,0.0,162,-0.005738868843764067,0.04279302805662155,0.14941217005252838,-0.006449015811085701,0.006297156680375338,-0.012714757584035397,0.9998786449432373
35036.587,-0.0031321111600846052,0.001867893966846168,0.006378938909620047,0.04180525988340378,-0.04539653658866882,0.99132239818573,-0.4124563932418823,1.9225009679794312,-6.494843482971191,20,0.0,0.0,162,-0.00591679522767663,0.04287881404161453,0.14938442409038544,-0.006774371489882469,0.005574440583586693,-0.012735605239868164,0.9998804926872253
35038.495,-0.0031321111600846052,0.001867893966846168,0.006378938909620047,0.04702522233128548,-0.038952041417360306,0.9915783405303955,-0.22960792481899261,2.1060235500335693,-0.48731327056884766,20,0.0,0.0,162,-0.00591679522767663,0.04287881404161453,0.14938442409038544,-0.006774371489882469,0.005574440583586693,-0.012735605239868164,0.9998804926872253
35040.476,-0.0028780652210116386,0.004656555596739054,-0.026492509990930557,0.04755663126707077,-0.03280012309551239,0.991945743560791,0.17226284742355347,2.036383628845215,6.357314586639404,20,0.0,0.0,162,-0.00591679522767663,0.04287881404161453,0.14938442409038544,-0.006774371489882469,0.005574440583586693,-0.012735605239868164,0.9998804926872253
35042.508,-0.0028780652210116386,0.004656555596739054,-0.026492509990930557,0.04261404648423195,-0.028009379282593727,0.9927185773849487,0.5130540132522583,1.8221406936645508,11.878386497497559,20,0.0,0.0,162,-0.006162095814943314,0.043202970176935196,0.14934365451335907,-0.007918070070445538,0.0046556126326322556,-0.012666305527091026,0.9998775720596313
35044.433,-0.003048444166779518,0.005002747289836407,-0.015919096767902374,0.033521413803100586,-0.02481462061405182,0.9940088987350464,0.6186589002609253,1.7472648620605469,14.701730728149414,20,0.0,0.0,162,-0.006162095814943314,0.043202970176935196,0.14934365451335907,-0.007918070070445538,0.0046556126326322556,-0.012666305527091026,0.9998775720596313
35046.493,-0.003048444166779518,0.005002747289836407,-0.015919096767902374,0.023248683661222458,-0.023825084790587425,0.9956174492835999,0.6248312592506409,1.9481747150421143,14.372507095336914,20,0.0,0.0,162,-0.0060103111900389194,0.04308479279279709,0.14941291511058807,-0.007620587944984436,0.005118544213473797,-0.012756912037730217,0.9998764991760254
35048.395,-0.003205355955287814,0.005318089388310909,-0.005631926003843546,0.014081678353250027,-0.025246739387512207,0.9981868267059326,0.5811139345169067,2.125969648361206,12.255727767944336,20,0.0,0.0,162,-0.0060103111900389194,0.04308479279279709,0.14941291511058807,-0.007620587944984436,0.005118544213473797,-0.012756912037730217,0.9998764991760254
35050.376,-0.00498201185837388,0.008977574296295643,-0.006318297702819109,0.006784043274819851,-0.029424846172332764,1.0004339218139648,0.5392886996269226,1.8914003372192383,9.722188949584961,20,0.0,0.0,162,-0.0060103111900389194,0.04308479279279709,0.14941291511058807,-0.007620587944984436,0.005118544213473797,-0.012756912037730217,0.9998764991760254
35052.416,-0.00498201185837388,0.008977574296295643,-0.006318297702819109,0.0011145099997520447,-0.035221248865127563,1.0020568370819092,0.356163889169693,1.364275336265564,7.012977600097656,20,0.0,0.0,162,-0.006191554479300976,0.043205443769693375,0.1493392437696457,-0.007912571541965008,0.004602232947945595,-0.012914730235934258,0.9998747110366821
35054.342,-0.005164459813386202,0.009332066401839256,0.005178448278456926,-0.0032711320091038942,-0.04085667431354523,1.0025763511657715,0.10333030670881271,0.9850627183914185,4.272783279418945,20,0.0,0.0,162,-0.006191554479300976,0.043205443769693375,0.1493392437696457,-0.007912571541965008,0.004602232947945595,-0.012914730235934258,0.9998747110366821
35056.388,-0.005164459813386202,0.009332066401839256,0.005178448278456926,-0.006351571995764971,-0.04547522962093353,1.00290048122406,-0.07564079761505127,0.7799363136291504,2.0304348468780518,20,0.0,0.0,162,-0.006191554479300976,0.043205443769693375,0.1493392437696457,-0.007912571541965008,0.004602232947945595,-0.012914730235934258,0.9998747110366821
35058.303,-0.005164459813386202,0.009332066401839256,0.005178448278456926,-0.007273033726960421,-0.049477335065603256,1.0030851364135742,-0.12426327168941498,0.6285451650619507,0.8262545466423035,20,0.0,0.0,162,-0.007003243081271648,0.04364008083939552,0.14924457669258118,-0.009302065707743168,0.0023323558270931244,-0.012505079619586468,0.9998758435249329
35060.289,-0.005164459813386202,0.009332066401839256,0.005178448278456926,-0.0061025470495224,-0.05302661284804344,1.0031417608261108,-0.14105184376239777,0.4275220036506653,0.4696539342403412,20,0.0,0.0,161,-0.007003243081271648,0.04364008083939552,0.14924457669258118,-0.009302065707743168,0.0023323558270931244,-0.012505079619586468,0.9998758435249329
35062.32,-0.005008001811802387,0.011168787255883217,-0.024475745856761932,-0.003911231644451618,-0.05591525509953499,1.0029183626174927,-0.12145981192588806,0.1714283674955368,0.2806623578071594,20,0.0,0.0,161,-0.007003243081271648,0.04364008083939552,0.14924457669258118,-0.009302065707743168,0.0023323558270931244,-0.012505079619586468,0.9998758435249329
35064.241,-0.005008001811802387,0.011168787255883217,-0.024475745856761932,-0.0019329508068040013,-0.05757123976945877,1.0023910999298096,0.013877865858376026,-0.2503139078617096,-0.5317267179489136,20,0.0,0.0,161,-0.00604240782558918,0.04308858886361122,0.14935411512851715,-0.0075568947941064835,0.005213196389377117,-0.012750930152833462,0.9998766183853149
35066.294,-0.005175769329071045,0.011491523124277592,-0.014322957023978233,-0.0005446585128083825,-0.05690136179327965,1.0013976097106934,0.16986261308193207,-0.6002196669578552,-1.7342442274093628,20,0.0,0.0,161,-0.00604240782558918,0.04308858886361122,0.14935411512851715,-0.0075568947941064835,0.005213196389377117,-0.012750930152833462,0.9998766183853149
35068.21,-0.005175769329071045,0.011491523124277592,-0.014322957023978233,-0.00031979140476323664,-0.05495499074459076,1.0003784894943237,0.20961031317710876,-0.7460891008377075,-2.8215291500091553,20,0.0,0.0,161,-0.005926969461143017,0.04306286945939064,0.1494622379541397,-0.007424840237945318,0.005551522132009268,-0.012775735929608345,0.9998754262924194
35070.186,-0.006920362822711468,0.015375480987131596,-0.0027237345930188894,-0.0009040929726324975,-0.05457937717437744,0.9993475079536438,0.24484966695308685,-0.724037766456604,-4.053580284118652,20,0.0,0.0,161,-0.005926969461143017,0.04306286945939064,0.1494622379541397,-0.007424840237945318,0.005551522132009268,-0.012775735929608345,0.9998754262924194
35072.227,-0.006920362822711468,0.015375480987131596,-0.0027237345930188894,0.0004030505660921335,-0.05549043416976929,0.9982024431228638,0.12525570392608643,-0.7409451603889465,-5.440004825592041,20,0.0,0.0,161,-0.005926969461143017,0.04306286945939064,0.1494622379541397,-0.007424840237945318,0.005551522132009268,-0.012775735929608345,0.9998754262924194
35074.161,-0.006920362822711468,0.015375480987131596,-0.0027237345930188894,0.005728611256927252,-0.05102759972214699,0.9963288307189941,-0.3549073338508606,-0.899195671081543,-4.969075679779053,20,0.0,0.0,161,-0.005926969461143017,0.04306286945939064,0.1494622379541397,-0.007424840237945318,0.005551522132009268,-0.012775735929608345,0.9998754262924194
35076.196,-0.006920362822711468,0.015375480987131596,-0.0027237345930188894,0.012200768105685711,-0.041777774691581726,0.9941540360450745,-0.5586047768592834,-1.389143943786621,-0.8737979531288147,20,0.0,0.0,161,-0.006109218578785658,0.04309924691915512,0.14936329424381256,-0.007429977413266897,0.004924803972244263,-0.013046227395534515,0.9998751878738403
35078.112,-0.007098916918039322,0.015699714422225952,0.008312596008181572,0.016260160133242607,-0.03557828068733215,0.99271160364151,-0.04787737503647804,-1.747222661972046,3.425961494445801,20,0.0,0.0,161,-0.006109218578785658,0.04309924691915512,0.14936329424381256,-0.007429977413266897,0.004924803972244263,-0.013046227395534515,0.9998751878738403
35080.103,-0.008566134609282017,0.01916004717350006,0.007949279621243477,0.01707138493657112,-0.03472714126110077,0.992013692855835,0.44907936453819275,-1.5099350214004517,3.5348153114318848,20,0.0,0.0,161,-0.006068657152354717,0.04317494481801987,0.1493941843509674,-0.007862037047743797,0.0050654541701078415,-0.01277230866253376,0.9998747110366821
35082.126,-0.008566134609282017,0.01916004717350006,0.007949279621243477,0.014961685054004192,-0.03559865057468414,0.9920885562896729,0.3655092716217041,-1.33389151096344,0.6769106984138489,20,0.0,0.0,161,-0.006068657152354717,0.04317494481801987,0.1493941843509674,-0.007862037047743797,0.0050654541701078415,-0.01277230866253376,0.9998747110366821
35084.051,-0.007676979061216116,0.0167823676019907,-0.021465322002768517,0.010775589384138584,-0.03520354628562927,0.9918603897094727,0.016491422429680824,-1.4187229871749878,-1.85994553565979,20,0.0,0.0,161,-0.006068657152354717,0.04317494481801987,0.1493941843509674,-0.007862037047743797,0.0050654541701078415,-0.01277230866253376,0.9998747110366821
35086.111,-0.007676979061216116,0.0167823676019907,-0.021465322002768517,0.006764780264347792,-0.03508080169558525,0.9923245906829834,-0.057163581252098083,-1.5929511785507202,-2.9064505100250244,20,0.0,0.0,161,-0.006079442333430052,0.043170422315597534,0.14936815202236176,-0.007867286913096905,0.004929304588586092,-0.012744739651679993,0.9998757243156433
35088.013,-0.007837243378162384,0.01710466481745243,-0.011622502468526363,0.006402595899999142,-0.03849797323346138,0.9939295649528503,0.011423598974943161,-1.64950430393219,-2.9533698558807373,20,0.0,0.0,161,-0.006079442333430052,0.043170422315597534,0.14936815202236176,-0.007867286913096905,0.004929304588586092,-0.012744739651679993,0.9998757243156433
35090.004,-0.009241434745490551,0.02048339694738388,-0.01242078561335802,0.011491678655147552,-0.04196116700768471,0.9963313341140747,-0.03970061615109444,-1.6184072494506836,-1.6999163627624512,20,0.0,0.0,161,-0.006079442333430052,0.043170422315597534,0.14936815202236176,-0.007867286913096905,0.004929304588586092,-0.012744739651679993,0.9998757243156433
35092.035,-0.009241434745490551,0.02048339694738388,-0.01242078561335802,0.018799101933836937,-0.042321205139160156,0.9987255334854126,0.08122576773166656,-1.9623768329620361,1.497744083404541,20,0.0,0.0,161,-0.006077643483877182,0.04314575344324112,0.14937354624271393,-0.00773311872035265,0.004967133980244398,-0.012702878564596176,0.9998771548271179
35093.956,-0.009415914304554462,0.020819522440433502,-0.0013609512243419886,0.02187657356262207,-0.04219163581728935,1.001097559928894,0.3922220468521118,-2.490874767303467,4.712329864501953,20,0.0,0.0,161,-0.006077643483877182,0.04314575344324112,0.14937354624271393,-0.00773311872035265,0.004967133980244398,-0.012702878564596176,0.9998771548271179
35096.011,-0.009415914304554462,0.020819522440433502,-0.0013609512243419886,0.018263807520270348,-0.045784711837768555,1.0033595561981201,0.6012634038925171,-2.6437106132507324,4.165712833404541,20,0.0,0.0,161,-0.006076181307435036,0.04297143965959549,0.1493363082408905,-0.007084923330694437,0.005093685816973448,-0.012868285179138184,0.9998791813850403
35097.922,-0.009582077153027058,0.021118467673659325,0.00936687272042036,0.012512530200183392,-0.05123904347419739,1.00505793094635,0.41821280121803284,-2.4030075073242188,-0.6453296542167664,20,0.0,0.0,161,-0.006076181307435036,0.04297143965959549,0.1493363082408905,-0.007084923330694437,0.005093685816973448,-0.012868285179138184,0.9998791813850403
35099.902,-0.010712582617998123,0.02287016622722149,0.009299485944211483,0.009992452338337898,-0.05311466380953789,1.005921721458435,0.03309491276741028,-2.159972667694092,-5.41806697845459,20,0.0,0.0,161,-0.006076181307435036,0.04297143965959549,0.1493363082408905,-0.007084923330694437,0.005093685816973448,-0.012868285179138184,0.9998791813850403
35101.941,-0.009922178462147713,0.02155311591923237,-0.03000725992023945,0.013314904645085335,-0.049388788640499115,1.0048140287399292,-0.34449058771133423,-2.0218145847320557,-6.1354546546936035,20,0.0,0.0,161,-0.0061181774362921715,0.04312460869550705,0.14939428865909576,-0.007700704503804445,0.004850012715905905,-0.012682917527854443,0.9998782277107239
35103.865,-0.010082002729177475,0.021874284371733665,-0.020104583352804184,0.02349507436156273,-0.04251831769943237,1.0017021894454956,-0.3333752155303955,-2.3498847484588623,-2.6853737831115723,20,0.0,0.0,161,-0.0061181774362921715,0.04312460869550705,0.14939428865909576,-0.007700704503804445,0.004850012715905905,-0.012682917527854443,0.9998782277107239
35105.912,-0.010082002729177475,0.021874284371733665,-0.020104583352804184,0.035201530903577805,-0.037767231464385986,0.9984744191169739,0.15517675876617432,-3.6035847663879395,2.174459457397461,20,0.0,0.0,161,-0.0061181774362921715,0.04312460869550705,0.14939428865909576,-0.007700704503804445,0.004850012715905905,-0.012682917527854443,0.9998782277107239
35107.821,-0.010082002729177475,0.021874284371733665,-0.020104583352804184,0.03148529678583145,-0.041879430413246155,0.9985259771347046,0.4451797604560852,-4.4968438148498535,4.3240861892700195,20,0.0,0.0,161,-0.006005350966006517,0.04290183261036873,0.14936956763267517,-0.006898410618305206,0.005323042627424002,-0.012755027040839195,0.9998807311058044
35109.812,-0.011580225080251694,0.025448493659496307,-0.010255389846861362,0.007571432273834944,-0.04909761622548103,1.0005292892456055,0.10933265089988708,-3.551237106323242,1.0875190496444702,20,0.0,0.0,161,-0.006005350966006517,0.04290183261036873,0.14936956763267517,-0.006898410618305206,0.005323042627424002,-0.012755027040839195,0.9998807311058044
35111.844,-0.011580225080251694,0.025448493659496307,-0.010255389846861362,-0.010596564039587975,-0.048159968107938766,1.0005227327346802,-0.4716179370880127,-3.553325653076172,-6.4489898681640625,20,0.0,0.0,161,-0.006005350966006517,0.04290183261036873,0.14936956763267517,-0.006898410618305206,0.005323042627424002,-0.012755027040839195,0.9998807311058044
35113.764,-0.011580225080251694,0.025448493659496307,-0.010255389846861362,0.002627602545544505,-0.04066134989261627,0.9964067935943604,-0.9460694789886475,-4.269670486450195,-12.18034839630127,20,0.0,0.0,161,-0.006520030088722706,0.04339463636279106,0.1493399441242218,-0.00862871389836073,0.0035145734436810017,-0.012677151709794998,0.9998763203620911
35115.815,-0.011762251146137714,0.025792349129915237,0.0005761852371506393,0.050237987190485,-0.035944245755672455,0.9921634197235107,-0.9423404932022095,-1.087363600730896,-9.411022186279297,20,0.0,0.0,161,-0.006520030088722706,0.04339463636279106,0.1493399441242218,-0.00862871389836073,0.0035145734436810017,-0.012677151709794998,0.9998763203620911
35117.735,-0.011762251146137714,0.025792349129915237,0.0005761852371506393,0.11609934270381927,-0.030538607388734818,0.987460732460022,-0.31479591131210327,4.689393997192383,3.104081630706787,20,0.0,0.0,161,-0.006520030088722706,0.04339463636279106,0.1493399441242218,-0.00862871389836073,0.0035145734436810017,-0.012677151709794998,0.9998763203620911
35119.707,-0.013088134117424488,0.0290004201233387,0.00021605295478366315,0.1446520984172821,-0.01877984032034874,0.9840263724327087,0.44727960228919983,5.526942729949951,19.778453826904297,20,0.0,0.0,161,-0.006236674264073372,0.043136533349752426,0.14936910569667816,-0.007669856306165457,0.004474971443414688,-0.012804052792489529,0.9998787045478821
35121.753,-0.008348649367690086,0.025812730193138123,-0.026434386149048805,0.08786611258983612,-0.010775950737297535,0.9822674989700317,0.9795118570327759,-0.9789561033248901,30.59253692626953,20,0.0,0.0,161,-0.006236674264073372,0.043136533349752426,0.14936910569667816,-0.007669856306165457,0.004474971443414688,-0.012804052792489529,0.9998787045478821
35123.669,-0.008348649367690086,0.025812730193138123,-0.026434386149048805,-0.038030076771974564,-0.02251477912068367,0.9849269986152649,1.3471711874008179,-9.503523826599121,27.234516143798828,20,0.0,0.0,161,-0.0062324050813913345,0.04316474497318268,0.1493472158908844,-0.007794544100761414,0.004386248532682657,-0.012907495722174644,0.9998767375946045
35125.739,-0.00853772647678852,0.02612510323524475,-0.016740979626774788,-0.1473328322172165,-0.05284339562058449,0.990522027015686,1.6156736612319946,-13.169051170349121,8.587215423583984,20,0.0,0.0,161,-0.0062324050813913345,0.04316474497318268,0.1493472158908844,-0.007794544100761414,0.004386248532682657,-0.012907495722174644,0.9998767375946045
35127.631,-0.00853772647678852,0.02612510323524475,-0.016740979626774788,-0.15923413634300232,-0.08260034024715424,0.9991453289985657,0.8235127925872803,-8.480628967285156,-16.76939582824707,20,0.0,0.0,161,-0.0062324050813913345,0.04316474497318268,0.1493472158908844,-0.007794544100761414,0.004386248532682657,-0.012907495722174644,0.9998767375946045
35129.611,-0.00991068035364151,0.02925136312842369,-0.01810017228126526,-0.06181003153324127,-0.08904549479484558,1.0060226917266846,-1.052609920501709,1.0876497030258179,-35.699623107910156,20,0.0,0.0,161,-0.006543450523167849,0.043382905423641205,0.14937390387058258,-0.00852768775075674,0.0033612402621656656,-0.01270553283393383,0.9998773336410522
35131.654,-0.010126443579792976,0.02959461137652397,-0.007189845200628042,0.08129876106977463,-0.06384731829166412,1.003131628036499,-2.7407097816467285,7.039154529571533,-35.17121505737305,20,0.0,0.0,161,-0.006543450523167849,0.043382905423641205,0.14937390387058258,-0.00852768775075674,0.0033612402621656656,-0.01270553283393383,0.9998773336410522
35133.574,-0.010126443579792976,0.02959461137652397,-0.007189845200628042,0.18446576595306396,-0.031152477487921715,0.9943439364433289,-2.744523525238037,7.242119789123535,-12.92816162109375,20,0.0,0.0,161,-0.006543450523167849,0.043382905423641205,0.14937390387058258,-0.00852768775075674,0.0033612402621656656,-0.01270553283393383,0.9998773336410522
35135.623,-0.010126443579792976,0.02959461137652397,-0.007189845200628042,0.19953930377960205,-0.017195025458931923,0.988124668598175,-1.0381669998168945,4.155094623565674,14.531942367553711,20,0.0,0.0,161,-0.006538084242492914,0.04341612011194229,0.14937767386436462,-0.008666285313665867,0.0034910517279058695,-0.012677552178502083,0.9998760223388672
35137.542,-0.010332492180168629,0.029922667890787125,0.00340437819249928,0.12331926822662354,-0.029467890039086342,0.984211266040802,1.0646336078643799,-3.8423044681549072,23.349916458129883,20,0.0,0.0,161,-0.006538084242492914,0.04341612011194229,0.14937767386436462,-0.008666285313665867,0.0034910517279058695,-0.012677552178502083,0.9998760223388672
35139.529,-0.01184183917939663,0.03300771117210388,0.003092314349487424,0.009741916321218014,-0.052187737077474594,0.9844207167625427,2.3017983436584473,-14.141678810119629,10.350357055664062,20,0.0,0.0,161,-0.006538084242492914,0.04341612011194229,0.14937767386436462,-0.008666285313665867,0.0034910517279058695,-0.012677552178502083,0.9998760223388672
35141.56,-0.01184183917939663,0.03300771117210388,0.003092314349487424,-0.04982958361506462,-0.06515666097402573,0.9883071184158325,2.424572706222534,-14.097061157226562,-6.974206447601318,20,0.0,0.0,161,-0.006540027912706137,0.04338346794247627,0.14931634068489075,-0.008545531891286373,0.0034006114583462477,-0.012715333141386509,0.9998769164085388
35143.478,-0.01624276489019394,0.0292633268982172,-0.024101069197058678,-0.014828366227447987,-0.06467380374670029,0.9913715124130249,1.3228720426559448,-0.14417798817157745,-14.372411727905273,20,0.0,0.0,161,-0.006540027912706137,0.04338346794247627,0.14931634068489075,-0.008545531891286373,0.0034006114583462477,-0.012715333141386509,0.9998769164085388
35145.535,-0.01624276489019394,0.0292633268982172,-0.024101069197058678,0.05580470338463783,-0.05049147084355354,0.9938921332359314,-0.9744237065315247,12.686871528625488,-6.9997100830078125,20,0.0,0.0,161,-0.0065976595506072044,0.043361566960811615,0.14929978549480438,-0.008538284339010715,0.0032066123094409704,-0.012695678509771824,0.9998778104782104
35147.44,-0.016388140618801117,0.029584363102912903,-0.01455054059624672,0.08060440421104431,-0.03701462969183922,0.9956455230712891,-2.893040418624878,11.485844612121582,10.333144187927246,20,0.0,0.0,161,-0.0065976595506072044,0.043361566960811615,0.14929978549480438,-0.008538284339010715,0.0032066123094409704,-0.012695678509771824,0.9998778104782104
35149.421,-0.017545567825436592,0.03261789679527283,-0.015643278136849403,0.05275591462850571,-0.0328497551381588,0.9979039430618286,-2.4789888858795166,2.6697497367858887,23.9281005859375,20,0.0,0.0,161,-0.0065976595506072044,0.043361566960811615,0.14929978549480438,-0.008538284339010715,0.0032066123094409704,-0.012695678509771824,0.9998778104782104
35151.466,-0.017545567825436592,0.03261789679527283,-0.015643278136849403,0.012008393183350563,-0.0312604121863842,0.9981964230537415,-0.26230451464653015,-4.4829325675964355,22.202238082885742,20,0.0,0.0,161,-0.006276461761444807,0.04296722635626793,0.149257093667984,-0.00721197621896863,0.004532724153250456,-0.012886175885796547,0.9998807311058044
35153.383,-0.017690321430563927,0.03290781006217003,-0.004871570039540529,-0.00843715202063322,-0.03223442658782005,0.9968263506889343,1.9722583293914795,-9.211846351623535,8.213906288146973,20,0.0,0.0,161,-0.006276461761444807,0.04296722635626793,0.149257093667984,-0.00721197621896863,0.004532724153250456,-0.012886175885796547,0.9998807311058044
35155.433,-0.017690321430563927,0.03290781006217003,-0.004871570039540529,0.0017498719971626997,-0.03196794167160988,0.9959067702293396,2.5805165767669678,-8.315011978149414,-0.8779146075248718,20,0.0,0.0,161,-0.006276461761444807,0.04296722635626793,0.149257093667984,-0.00721197621896863,0.004532724153250456,-0.012886175885796547,0.9998807311058044
35157.343,-0.017690321430563927,0.03290781006217003,-0.004871570039540529,0.0337524451315403,-0.027227217331528664,0.9978429079055786,1.6875360012054443,0.6736292243003845,5.395222187042236,20,0.0,0.0,161,-0.006640883162617683,0.043397702276706696,0.14936146140098572,-0.00866461917757988,0.0031936238519847393,-0.012616664171218872,0.9998778104782104
35159.326,-0.019055457785725594,0.036203596740961075,0.005246859509497881,0.06234759837388992,-0.03629644960165024,0.999298095703125,1.0300885438919067,7.939496994018555,17.96814727783203,20,0.0,0.0,161,-0.006640883162617683,0.043397702276706696,0.14936146140098572,-0.00866461917757988,0.0031936238519847393,-0.012616664171218872,0.9998778104782104
35161.37,-0.019055457785725594,0.036203596740961075,0.005246859509497881,0.08228900283575058,-0.061899151653051376,0.999000072479248,1.0174545049667358,5.774074077606201,20.433635711669922,20,0.0,0.0,161,-0.006640883162617683,0.043397702276706696,0.14936146140098572,-0.00866461917757988,0.0031936238519847393,-0.012616664171218872,0.9998778104782104
35163.286,-0.019055457785725594,0.036203596740961075,0.005246859509497881,0.09658201038837433,-0.07480361312627792,0.998156726360321,0.9601837992668152,0.5381827354431152,9.990875244140625,20,0.0,0.0,161,-0.0066820718348026276,0.04335513710975647,0.1492736041545868,-0.008502714335918427,0.0029636211693286896,-0.012787573970854282,0.9998777508735657
35165.347,-0.012530500069260597,0.032384343445301056,-0.021939625963568687,0.08746052533388138,-0.06668005883693695,0.9938093423843384,0.7457948327064514,-0.7159801721572876,1.161206841468811,20,0.0,0.0,161,-0.0066820718348026276,0.04335513710975647,0.1492736041545868,-0.008502714335918427,0.0029636211693286896,-0.012787573970854282,0.9998777508735657
35167.258,-0.012530500069260597,0.032384343445301056,-0.021939625963568687,0.059744831174612045,-0.050685297697782516,0.9888731241226196,0.8333401083946228,0.871149480342865,6.016175270080566,20,0.0,0.0,161,-0.0066820718348026276,0.04335513710975647,0.1492736041545868,-0.008502714335918427,0.0029636211693286896,-0.012787573970854282,0.9998777508735657
35169.233,-0.013958156108856201,0.03531881794333458,-0.022203581407666206,0.03306347504258156,-0.04510728269815445,0.9881827235221863,1.3590575456619263,2.3919289112091064,15.206605911254883,20,0.0,0.0,161,-0.0059772371314466,0.04278837889432907,0.149352565407753,-0.006423948332667351,0.005687444005161524,-0.012794550508260727,0.9998814463615417
35171.268,-0.014150251634418964,0.035592228174209595,-0.01119165401905775,0.008730883710086346,-0.057401761412620544,0.989292562007904,1.7073439359664917,2.749624490737915,10.2796049118042,20,0.0,0.0,161,-0.0059772371314466,0.04278837889432907,0.149352565407753,-0.006423948332667351,0.005687444005161524,-0.012794550508260727,0.9998814463615417
35173.192,-0.014150251634418964,0.035592228174209595,-0.01119165401905775,-0.0016620639944449067,-0.07500916719436646,0.9964393973350525,1.244484543800354,1.652036190032959,-10.903514862060547,20,0.0,0.0,161,-0.006565367337316275,0.043348222970962524,0.14933788776397705,-0.008493681438267231,0.003386216936632991,-0.012559069320559502,0.9998793601989746
35175.242,-0.014356697909533978,0.035904861986637115,-0.0004935999168083072,0.009871677495539188,-0.07768934220075607,1.0116328001022339,0.7424954175949097,0.3965536057949066,-30.24333381652832,20,0.0,0.0,161,-0.006565367337316275,0.043348222970962524,0.14933788776397705,-0.008493681438267231,0.003386216936632991,-0.012559069320559502,0.9998793601989746
35177.153,-0.014356697909533978,0.035904861986637115,-0.0004935999168083072,0.04375431314110756,-0.06347549706697464,1.0083730220794678,0.3922792375087738,3.168644666671753,-31.744325637817383,20,0.0,0.0,161,-0.006565367337316275,0.043348222970962524,0.14933788776397705,-0.008493681438267231,0.003386216936632991,-0.012559069320559502,0.9998793601989746
35179.138,-0.015626365318894386,0.03877168521285057,-0.0009341447148472071,0.08928921818733215,-0.05378420278429985,0.9915892481803894,1.352792739868164,6.87336540222168,-12.5610933303833,20,0.0,0.0,161,-0.005937562789767981,0.04284451901912689,0.14938043057918549,-0.006661145482212305,0.005733476020395756,-0.012750995345413685,0.9998800754547119
35181.178,-0.01582144945859909,0.03903234750032425,0.010997345671057701,0.09209742397069931,-0.06737876683473587,0.9795889854431152,4.213770389556885,3.549591064453125,26.351301193237305,20,0.0,0.0,161,-0.005937562789767981,0.04284451901912689,0.14938043057918549,-0.006661145482212305,0.005733476020395756,-0.012750995345413685,0.9998800754547119
35183.101,-0.010530058294534683,0.03455314785242081,-0.0271757859736681,0.020106008276343346,-0.10589613020420074,0.9565742611885071,6.423351287841797,-0.6879540681838989,67.1621322631836,20,0.0,0.0,161,-0.005937562789767981,0.04284451901912689,0.14938043057918549,-0.006661145482212305,0.005733476020395756,-0.012750995345413685,0.9998800754547119
35185.146,-0.010530058294534683,0.03455314785242081,-0.0271757859736681,-0.049122970551252365,-0.1307682991027832,0.9402241706848145,4.497379779815674,2.224863290786743,64.76638793945312,20,0.0,0.0,161,-0.006228229962289333,0.043137144297361374,0.1493855118751526,-0.007699725218117237,0.004603303968906403,-0.012741630896925926,0.9998785853385925
35187.058,-0.010736878961324692,0.03484359383583069,-0.017493030056357384,-0.06419412791728973,-0.10448353737592697,0.9494340419769287,-2.489129066467285,2.0939042568206787,-1.729241132736206,20,0.0,0.0,161,-0.006228229962289333,0.043137144297361374,0.1493855118751526,-0.007699725218117237,0.004603303968906403,-0.012741630896925926,0.9998785853385925
35189.05,-0.012029873207211494,0.037581779062747955,-0.020240454003214836,-0.061073772609233856,0.006943964399397373,0.9742869734764099,-10.405147552490234,-3.8025851249694824,-67.17351531982422,20,0.0,0.0,161,-0.006228229962289333,0.043137144297361374,0.1493855118751526,-0.007699725218117237,0.004603303968906403,-0.012741630896925926,0.9998785853385925
35191.077,-0.012029873207211494,0.037581779062747955,-0.020240454003214836,-0.05614732205867767,0.18666556477546692,1.025884985923767,-14.473320007324219,0.968055248260498,-59.4500846862793,20,0.0,0.0,161,-0.006317446939647198,0.043156448751688004,0.14932963252067566,-0.007840308360755444,0.004252336453646421,-0.012628339231014252,0.9998804926872253
35193.002,-0.012256806716322899,0.03787838667631149,-0.00928584299981594,-0.046649303287267685,0.3535991907119751,1.0940792560577393,-12.393099784851074,10.04764461517334,3.324441909790039,20,0.0,0.0,161,-0.006317446939647198,0.043156448751688004,0.14932963252067566,-0.007840308360755444,0.004252336453646421,-0.012628339231014252,0.9998804926872253
35195.054,-0.012256806716322899,0.03787838667631149,-0.00928584299981594,-0.02653438039124012,0.45162874460220337,1.1892701387405396,-5.892190456390381,-1.0003063678741455,51.886863708496094,20,0.0,0.0,161,-0.0058237104676663876,0.04290914908051491,0.14944154024124146,-0.0071599287912249565,0.00575748085975647,-0.012637519277632236,0.9998779296875
35196.963,-0.0137254036962986,0.04098176956176758,0.007584801409393549,-0.017917515709996223,0.43896785378456116,1.3359136581420898,2.2955639362335205,-17.249847412109375,53.82608413696289,20,0.0,0.0,161,-0.0058237104676663876,0.04290914908051491,0.14944154024124146,-0.0071599287912249565,0.00575748085975647,-0.012637519277632236,0.9998779296875
35198.944,-0.0137254036962986,0.04098176956176758,0.007584801409393549,-0.04566638171672821,0.34386610984802246,1.545631766319275,10.117757797241211,-10.45616340637207,44.63421630859375,20,0.0,0.0,161,-0.0058237104676663876,0.04290914908051491,0.14944154024124146,-0.0071599287912249565,0.00575748085975647,-0.012637519277632236,0.9998779296875
35200.988,-0.0137254036962986,0.04098176956176758,0.007584801409393549,-0.06577590107917786,0.21546126902103424,1.822826623916626,18.53731918334961,3.767768621444702,57.16297149658203,20,0.0,0.0,161,-0.00701303593814373,0.04357638210058212,0.14884509146213531,-0.010676219128072262,0.0002602308231871575,-0.012228062376379967,0.9998682737350464
35202.908,-0.01062887255102396,0.03384898975491524,0.020801154896616936,-0.06354551017284393,0.04588324949145317,2.112884759902954,28.06049919128418,-0.22959648072719574,79.74596405029297,20,0.0,0.0,162,-0.00701303593814373,0.04357638210058212,0.14884509146213531,-0.010676219128072262,0.0002602308231871575,-0.012228062376379967,0.9998682737350464
35204.966,-0.009615794755518436,0.03218336030840874,-0.018957456573843956,-0.07001444697380066,-0.21132925152778625,2.344701051712036,35.267921447753906,-8.918848037719727,77.1655502319336,20,0.0,0.0,162,-0.00701303593814373,0.04357638210058212,0.14884509146213531,-0.010676219128072262,0.0002602308231871575,-0.012228062376379967,0.9998682737350464
35206.867,-0.009615794755518436,0.03218336030840874,-0.018957456573843956,-0.1288323700428009,-0.490966796875,2.4128329753875732,36.718929290771484,-2.2552661895751953,41.69575500488281,20,0.0,0.0,162,-0.006619602907449007,0.04344016686081886,0.14891259372234344,-0.009121065959334373,0.0021805125288665295,-0.013609535060822964,0.9998635053634644
35208.848,-0.012758574448525906,0.038937751203775406,0.09162312746047974,-0.15398183465003967,-0.6336430907249451,2.2577829360961914,30.7156925201416,4.828349590301514,-1.8630633354187012,20,0.0,0.0,162,-0.006619602907449007,0.04344016686081886,0.14891259372234344,-0.009121065959334373,0.0021805125288665295,-0.013609535060822964,0.9998635053634644
35210.889,-0.012758574448525906,0.038937751203775406,0.09162312746047974,-0.0624983012676239,-0.6412421464920044,1.885219931602478,22.79861831665039,0.3346066474914551,-30.20742416381836,20,0.0,0.0,162,-0.006619602907449007,0.04344016686081886,0.14891259372234344,-0.009121065959334373,0.0021805125288665295,-0.013609535060822964,0.9998635053634644
35212.809,-0.012758574448525906,0.038937751203775406,0.09162312746047974,0.03212553262710571,-0.6077874898910522,1.3790216445922852,13.334171295166016,-9.856948852539062,-21.843280792236328,20,0.0,0.0,162,-0.006814063061028719,0.043546512722969055,0.14979182183742523,-0.00827203318476677,8.334778249263763e-05,-0.014066996984183788,0.9998668432235718
35214.865,-0.013009147718548775,0.039328113198280334,0.1026725172996521,0.03804600611329079,-0.5558053851127625,0.932487964630127,-3.282369613647461,-18.67206382751465,-8.349300384521484,20,0.0,0.0,162,-0.006814063061028719,0.043546512722969055,0.14979182183742523,-0.00827203318476677,8.334778249263763e-05,-0.014066996984183788,0.9998668432235718
35216.778,-0.013009147718548775,0.039328113198280334,0.1026725172996521,-0.003380724461749196,-0.4433320164680481,0.5886121392250061,-27.953567504882812,-19.019502639770508,-31.381824493408203,20,0.0,0.0,162,-0.007013029884546995,0.04364659637212753,0.1502087116241455,-0.008281729184091091,-0.0015437238616868854,-0.013029828667640686,0.9998795986175537
35218.753,-0.015215505845844746,0.04361708089709282,0.15697914361953735,0.038904935121536255,-0.2616724669933319,0.3452908396720886,-44.118324279785156,-15.52010440826416,-62.48937225341797,20,0.0,0.0,162,-0.007013029884546995,0.04364659637212753,0.1502087116241455,-0.008281729184091091,-0.0015437238616868854,-0.013029828667640686,0.9998795986175537
35220.783,-0.015215505845844746,0.04361708089709282,0.15697914361953735,0.13018731772899628,-0.20569166541099548,0.2565956711769104,-40.83549880981445,-19.352693557739258,-49.682010650634766,20,0.0,0.0,162,-0.007013029884546995,0.04364659637212753,0.1502087116241455,-0.008281729184091091,-0.0015437238616868854,-0.013029828667640686,0.9998795986175537
35222.721,-0.015215505845844746,0.04361708089709282,0.15697914361953735,0.019129272550344467,-0.3859415054321289,0.3156222403049469,-27.35719871520996,-31.46477699279785,-1.3402626514434814,20,0.0,0.0,162,-0.00735239963978529,0.04361502081155777,0.1505826711654663,-0.00996384397149086,-0.0023131067864596844,-0.01252722553908825,0.9998692274093628
35224.764,-0.015215505845844746,0.04361708089709282,0.15697914361953735,-0.1470288336277008,-0.5933771133422852,0.47578105330467224,-15.82574462890625,-35.2341423034668,5.677639484405518,20,0.0,0.0,162,-0.00735239963978529,0.04361502081155777,0.1505826711654663,-0.00996384397149086,-0.0023131067864596844,-0.01252722553908825,0.9998692274093628
35226.676,-0.025398051366209984,0.04879983514547348,0.12609584629535675,-0.08514004200696945,-0.49547216296195984,0.698822557926178,-2.265368700027466,-24.348140716552734,-50.01991653442383,20,0.0,0.0,162,-0.00735239963978529,0.04361502081155777,0.1505826711654663,-0.00996384397149086,-0.0023131067864596844,-0.01252722553908825,0.9998692274093628
35228.659,-0.025398051366209984,0.04879983514547348,0.12609584629535675,0.17614150047302246,-0.10638083517551422,1.0087298154830933,14.312460899353027,-19.385894775390625,-101.4437484741211,20,0.0,0.0,162,-0.007749004755169153,0.043065235018730164,0.15083619952201843,-0.010065478272736073,-0.0038056110497564077,-0.01451903861016035,0.999836802482605
35230.687,-0.024725928902626038,0.04902509227395058,0.0825607180595398,0.44126978516578674,0.20014449954032898,1.6022305488586426,24.786975860595703,-26.993379592895508,-97.33366394042969,20,0.0,0.0,162,-0.007749004755169153,0.043065235018730164,0.15083619952201843,-0.010065478272736073,-0.0038056110497564077,-0.01451903861016035,0.999836802482605
35232.619,-0.024725928902626038,0.04902509227395058,0.0825607180595398,0.32492005825042725,-0.017214154824614525,2.460730791091919,16.713550567626953,-13.54047679901123,-31.353809356689453,20,0.0,0.0,162,-0.007749004755169153,0.043065235018730164,0.15083619952201843,-0.010065478272736073,-0.0038056110497564077,-0.01451903861016035,0.999836802482605
35234.669,-0.024725928902626038,0.04902509227395058,0.0825607180595398,-0.3191305994987488,-0.624008297920227,3.3849050998687744,7.573185920715332,11.26492977142334,72.40050506591797,20,0.0,0.0,162,-0.007876042276620865,0.04290756955742836,0.15187489986419678,-0.009775759652256966,-0.003940196242183447,-0.014783650636672974,0.9998352527618408
35236.585,-0.02490200661122799,0.049179043620824814,0.09368187934160233,-1.0103225708007812,-0.8803350329399109,3.8263099193573,12.899001121520996,-10.619047164916992,98.7111587524414,20,0.0,0.0,162,-0.007876042276620865,0.04290756955742836,0.15187489986419678,-0.009775759652256966,-0.003940196242183447,-0.014783650636672974,0.9998352527618408
35238.57,-0.02490200661122799,0.049179043620824814,0.09368187934160233,-0.987362265586853,-0.41156941652297974,3.066416025161743,41.700523376464844,-67.37362670898438,-48.291786193847656,20,0.0,0.0,162,-0.007876042276620865,0.04290756955742836,0.15187489986419678,-0.009775759652256966,-0.003940196242183447,-0.014783650636672974,0.9998352527618408
35240.6,-0.030468031764030457,0.05677132308483124,0.24835829436779022,-0.2754032611846924,0.6267856359481812,1.4997305870056152,64.55467224121094,-96.3550796508789,-180.3547821044922,20,0.0,0.0,162,-0.007997258566319942,0.04282303526997566,0.1543036550283432,-0.0064579639583826065,-0.003111069556325674,-0.013364560902118683,0.999885082244873
35242.53,-0.03065675124526024,0.056889891624450684,0.2609201967716217,0.5207416415214539,1.4962923526763916,-0.005002619698643684,23.34845733642578,-72.8177490234375,-104.83369445800781,20,-1.0,-1.0,159,-0.007997258566319942,0.04282303526997566,0.1543036550283432,-0.0064579639583826065,-0.003111069556325674,-0.013364560902118683,0.999885082244873
35244.584,-0.0716337040066719,0.04105681553483009,0.2867480516433716,0.7565330862998962,1.519447684288025,-0.9188329577445984,-64.37507629394531,-31.42124366760254,91.66477966308594,20,-1.0,-1.0,159,-0.008386963978409767,0.04295409098267555,0.15456494688987732,-0.01139857154339552,-0.003931981977075338,-0.011098010465502739,0.9998657703399658
35246.486,-0.0715498998761177,0.039111606776714325,0.24394221603870392,0.46407249569892883,0.7353769540786743,-1.048876404762268,-137.387939453125,0.09153291583061218,147.67201232910156,20,-1.0,-1.0,159,-0.008386963978409767,0.04295409098267555,0.15456494688987732,-0.01139857154339552,-0.003931981977075338,-0.011098010465502739,0.9998657703399658
35248.466,-0.0715498998761177,0.039111606776714325,0.24394221603870392,0.031317148357629776,-0.15434886515140533,-0.5985375046730042,-154.0706024169922,29.074228286743164,-26.909442901611328,20,-1.0,-1.0,159,-0.008386963978409767,0.04295409098267555,0.15456494688987732,-0.01139857154339552,-0.003931981977075338,-0.011098010465502739,0.9998657703399658
35250.504,-0.06830457597970963,0.03884614631533623,0.1758064180612564,-0.32656607031822205,-0.47702205181121826,0.0689687505364418,-127.6364974975586,35.76276779174805,-249.60260009765625,20,-1.0,-1.0,159,-0.008544310927391052,0.04288199171423912,0.15554751455783844,-0.015727728605270386,-0.004472981672734022,-0.015670843422412872,0.9997435212135315
35252.429,-0.06815382093191147,0.03921101987361908,0.18692588806152344,-0.3128305971622467,-0.17824958264827728,0.8467984199523926,-76.24478912353516,5.929654121398926,-359.59185791015625,20,-1.0,-1.0,159,-0.008544310927391052,0.04288199171423912,0.15554751455783844,-0.015727728605270386,-0.004472981672734022,-0.015670843422412872,0.9997435212135315
35254.493,-0.06815382093191147,0.03921101987361908,0.18692588806152344,-0.0057787406258285046,0.3133179545402527,1.5824942588806152,-17.936405181884766,-25.840755462646484,-311.44549560546875,20,-1.0,-1.0,159,-0.008544310927391052,0.04288199171423912,0.15554751455783844,-0.015727728605270386,-0.004472981672734022,-0.015670843422412872,0.9997435212135315
35256.399,-0.06815382093191147,0.03921101987361908,0.18692588806152344,0.14802925288677216,0.6465198397636414,2.11542010307312,14.749913215637207,-42.59477615356445,-137.3420867919922,20,-1.0,-1.0,159,-0.008618918247520924,0.04275132715702057,0.1563270092010498,-0.013746129348874092,-0.007181890774518251,-0.02709578350186348,0.9995126128196716
35258.371,-0.06801357120275497,0.03954342007637024,0.19780541956424713,0.09880401939153671,0.8241899609565735,2.4388155937194824,8.910765647888184,-40.119693756103516,24.202938079833984,20,-1.0,-1.0,159,-0.008618918247520924,0.04275132715702057,0.1563270092010498,-0.013746129348874092,-0.007181890774518251,-0.02709578350186348,0.9995126128196716
35260.4,-0.06961994618177414,0.04145843908190727,0.1932021826505661,0.16708117723464966,0.8231133222579956,2.6744329929351807,-8.531821250915527,-19.490671157836914,68.38860321044922,20,-1.0,-1.0,159,-0.008618918247520924,0.04275132715702057,0.1563270092010498,-0.013746129348874092,-0.007181890774518251,-0.02709578350186348,0.9995126128196716
35262.338,-0.06961994618177414,0.04145843908190727,0.1932021826505661,0.34000638127326965,0.3855527937412262,2.9418768882751465,-5.208847999572754,-1.4370604753494263,57.43226623535156,20,-1.0,-1.0,159,-0.008030189201235771,0.04240262508392334,0.15761373937129974,-0.015400724485516548,-0.0052460734732449055,-0.037795208394527435,0.9991530776023865
35264.383,-0.051909398287534714,0.03401295095682144,0.21219921112060547,0.3879866600036621,-0.3603515923023224,3.293363571166992,11.344147682189941,2.793043613433838,73.83895111083984,20,8.0,-8.0,158,-0.008030189201235771,0.04240262508392334,0.15761373937129974,-0.015400724485516548,-0.0052460734732449055,-0.037795208394527435,0.9991530776023865
35266.295,-0.05093146860599518,0.03161846846342087,0.1533774882555008,0.2681080102920532,-1.0857105255126953,3.54189133644104,20.328744888305664,6.711420059204102,61.963958740234375,20,8.0,-8.0,158,-0.008446061052381992,0.04313226044178009,0.15923213958740234,-0.018372133374214172,-0.008362150751054287,-0.041434917598962784,0.9989372491836548
35268.283,-0.06137308105826378,0.04399112984538078,0.3620834946632385,-0.06966908276081085,-1.2243034839630127,3.3600118160247803,6.127257347106934,3.8866329193115234,-27.266592025756836,20,8.0,-8.0,158,-0.008446061052381992,0.04313226044178009,0.15923213958740234,-0.018372133374214172,-0.008362150751054287,-0.041434917598962784,0.9989372491836548
35270.305,-0.06137308105826378,0.04399112984538078,0.3620834946632385,-0.3078564405441284,-0.2731492221355438,2.590996503829956,-23.1485538482666,-20.121984481811523,-181.2899169921875,20,8.0,-8.0,158,-0.008446061052381992,0.04313226044178009,0.15923213958740234,-0.018372133374214172,-0.008362150751054287,-0.041434917598962784,0.9989372491836548
35272.237,-0.06137308105826378,0.04399112984538078,0.3620834946632385,-0.06577197462320328,1.31208336353302,1.3915653228759766,-42.4033088684082,-40.115684509277344,-251.67022705078125,20,8.0,-8.0,158,-0.008815129287540913,0.04490586742758751,0.16339319944381714,-0.014498990029096603,-0.006937478668987751,-0.030931267887353897,0.9993922710418701
35274.287,-0.06147250533103943,0.04449383541941643,0.37386199831962585,0.38624143600463867,2.351896286010742,0.3753838539123535,-46.96571350097656,-33.78733825683594,-33.28307342529297,20,8.0,-8.0,158,-0.008815129287540913,0.04490586742758751,0.16339319944381714,-0.014498990029096603,-0.006937478668987751,-0.030931267887353897,0.9993922710418701
35276.199,-0.06147250533103943,0.04449383541941643,0.37386199831962585,0.6098722219467163,2.045966625213623,0.17720386385917664,-64.14131164550781,-30.604297637939453,386.4913635253906,20,8.0,-8.0,158,-0.008815129287540913,0.04490586742758751,0.16339319944381714,-0.014498990029096603,-0.006937478668987751,-0.030931267887353897,0.9993922710418701
35278.179,-0.06147250533103943,0.04449383541941643,0.37386199831962585,0.47333377599716187,0.617501974105835,0.7952166795730591,-92.61231231689453,-43.626564025878906,618.2901611328125,20,8.0,-8.0,158,-0.009069711901247501,0.043774209916591644,0.1642286479473114,-0.024249494075775146,-0.012186672538518906,-0.02101168781518936,0.99941086769104
35280.214,-0.0652557983994484,0.050317730754613876,0.42453745007514954,0.019619932398200035,-1.0270169973373413,1.6364398002624512,-94.99836730957031,-37.279319763183594,437.35748291015625,20,8.0,-8.0,158,-0.009069711901247501,0.043774209916591644,0.1642286479473114,-0.024249494075775146,-0.012186672538518906,-0.02101168781518936,0.99941086769104
35282.153,-0.0652557983994484,0.050317730754613876,0.42453745007514954,-0.5612983107566833,-1.8909567594528198,2.2389912605285645,-78.17537689208984,1.7337422370910645,27.04905128479004,20,8.0,-8.0,158,-0.009069711901247501,0.043774209916591644,0.1642286479473114,-0.024249494075775146,-0.012186672538518906,-0.02101168781518936,0.99941086769104
35284.214,-0.0652557983994484,0.050317730754613876,0.42453745007514954,-0.8138859272003174,-1.7368009090423584,2.593374252319336,-41.63407897949219,28.539480209350586,-305.680419921875,20,11.0,2.0,159,-0.008453520946204662,0.0439564473927021,0.16669656336307526,-0.023935360834002495,-0.012079931795597076,-0.01651296764612198,0.9995041489601135
35286.103,-0.02987317182123661,0.06582141667604446,0.38460758328437805,-0.6166966557502747,-1.0366172790527344,2.6194984912872314,19.894500732421875,5.816161632537842,-372.7994079589844,22,11.0,2.0,159,-0.008453520946204662,0.0439564473927021,0.16669656336307526,-0.023935360834002495,-0.012079931795597076,-0.01651296764612198,0.9995041489601135
35288.095,-0.02987317182123661,0.06582141667604446,0.38460758328437805,-0.061505429446697235,-0.28516286611557007,2.3637871742248535,72.17253112792969,-42.28291320800781,-193.93299865722656,22,11.0,2.0,159,-0.008453520946204662,0.0439564473927021,0.16669656336307526,-0.023935360834002495,-0.012079931795597076,-0.01651296764612198,0.9995041489601135
35290.117,-0.02987317182123661,0.06582141667604446,0.38460758328437805,0.4679799973964691,0.14877086877822876,1.9079172611236572,71.07032012939453,-60.731101989746094,70.72322845458984,22,11.0,2.0,159,-0.009290922433137894,0.04498840123414993,0.1699000597000122,-0.021970199421048164,-0.015379253774881363,-0.013805428519845009,0.9995450377464294
35292.052,-0.038474660366773605,0.07709237933158875,0.5155880451202393,0.35526320338249207,0.040936198085546494,1.3390560150146484,22.284887313842773,-36.298885345458984,261.7240295410156,22,11.0,2.0,159,-0.009290922433137894,0.04498840123414993,0.1699000597000122,-0.021970199421048164,-0.015379253774881363,-0.013805428519845009,0.9995450377464294
35294.104,-0.038474660366773605,0.07709237933158875,0.5155880451202393,-0.26402920484542847,-0.5813210010528564,0.9233748316764832,-40.831886291503906,1.9470123052597046,264.0452880859375,22,11.0,2.0,159,-0.009911085478961468,0.04485224932432175,0.17274180054664612,-0.024720260873436928,-0.012904745526611805,-0.018807128071784973,0.999434232711792
35296.01,-0.03886384144425392,0.07728753983974457,0.5277659893035889,-0.6554320454597473,-1.1307346820831299,0.8136840462684631,-65.8531494140625,32.94642639160156,91.8965835571289,22,11.0,2.0,159,-0.009911085478961468,0.04485224932432175,0.17274180054664612,-0.024720260873436928,-0.012904745526611805,-0.018807128071784973,0.999434232711792
35297.989,-0.03886384144425392,0.07728753983974457,0.5277659893035889,-0.46989011764526367,-1.021345853805542,0.7321531176567078,-31.971790313720703,35.684288024902344,-126.99356842041016,22,11.0,2.0,159,-0.009911085478961468,0.04485224932432175,0.17274180054664612,-0.024720260873436928,-0.012904745526611805,-0.018807128071784973,0.999434232711792
35300.018,-0.04303756728768349,0.08332069218158722,0.5477438569068909,0.17447131872177124,-0.2529223561286926,0.6464792490005493,21.239849090576172,17.21878433227539,-229.7388916015625,22,11.0,2.0,159,-0.009305942803621292,0.044447075575590134,0.17582033574581146,-0.024442989379167557,-0.01456431020051241,-0.022811105474829674,0.9993348717689514
35301.957,-0.04343165084719658,0.08340349793434143,0.5611741542816162,0.910190224647522,0.38947972655296326,0.7865642309188843,38.0672721862793,8.329649925231934,-107.99467468261719,22,11.0,2.0,159,-0.009305942803621292,0.044447075575590134,0.17582033574581146,-0.024442989379167557,-0.01456431020051241,-0.022811105474829674,0.9993348717689514
35304.026,-0.04343165084719658,0.08340349793434143,0.5611741542816162,1.06388258934021,0.24291837215423584,0.9339072108268738,14.9446439743042,12.452786445617676,188.4165802001953,22,16.0,1.0,158,-0.009305942803621292,0.044447075575590134,0.17582033574581146,-0.024442989379167557,-0.01456431020051241,-0.022811105474829674,0.9993348717689514
35305.913,-0.04343165084719658,0.08340349793434143,0.5611741542816162,0.2918667197227478,-0.4164636731147766,0.8408856391906738,-22.61335563659668,4.101861953735352,390.8766784667969,32,16.0,1.0,158,-0.0076880184933543205,0.042923472821712494,0.17980819940567017,-0.016526315361261368,-0.0019693297799676657,-0.01765819825232029,0.9997055530548096
35307.903,-0.01056762132793665,0.06988807022571564,0.5163761377334595,-0.7315605878829956,-0.7321404218673706,0.6768737435340881,-65.3460693359375,-6.1794352531433105,238.21197509765625,32,16.0,1.0,158,-0.0076880184933543205,0.042923472821712494,0.17980819940567017,-0.016526315361261368,-0.0019693297799676657,-0.01765819825232029,0.9997055530548096
35309.937,-0.014105325564742088,0.0734340101480484,0.4930308759212494,-1.1793357133865356,-0.26279109716415405,0.5675224661827087,-107.14765167236328,-1.4900627136230469,-137.03463745117188,32,16.0,1.0,158,-0.008367049507796764,0.04341584071516991,0.18094703555107117,-0.016876066103577614,0.000948320550378412,-0.00432487390935421,0.9998478293418884
35311.855,-0.014518149197101593,0.07358953356742859,0.505577564239502,-0.8826174139976501,0.7645809650421143,0.48982492089271545,-122.73866271972656,-4.384390354156494,-343.32928466796875,32,16.0,1.0,158,-0.008367049507796764,0.04341584071516991,0.18094703555107117,-0.016876066103577614,0.000948320550378412,-0.00432487390935421,0.9998478293418884
35313.905,-0.014518149197101593,0.07358953356742859,0.505577564239502,-0.17186668515205383,1.817771077156067,0.2854132354259491,-115.85906982421875,-28.26472282409668,-184.5871124267578,32,16.0,1.0,158,-0.008367049507796764,0.04341584071516991,0.18094703555107117,-0.016876066103577614,0.000948320550378412,-0.00432487390935421,0.9998478293418884
35315.831,-0.014518149197101593,0.07358953356742859,0.505577564239502,0.42696043848991394,2.174377202987671,-0.13435019552707672,-96.12837219238281,-49.485145568847656,175.19073486328125,32,16.0,1.0,158,-0.008367049507796764,0.04341584071516991,0.18094703555107117,-0.016876066103577614,0.000948320550378412,-0.00432487390935421,0.9998478293418884
35317.797,-0.014518149197101593,0.07358953356742859,0.505577564239502,0.4260012209415436,1.5242047309875488,-0.5101259350776672,-91.93170166015625,-53.26318359375,444.78253173828125,32,16.0,1.0,158,-0.010336925275623798,0.045595549046993256,0.18405401706695557,-0.03341953828930855,-0.009919174946844578,0.009365875273942947,0.9993484020233154
35319.831,-0.014982150867581367,0.07181848585605621,0.4382767081260681,-0.087986521422863,0.3568219244480133,-0.4495495557785034,-110.96282196044922,-38.74365997314453,385.052734375,32,16.0,1.0,158,-0.010336925275623798,0.045595549046993256,0.18405401706695557,-0.03341953828930855,-0.009919174946844578,0.009365875273942947,0.9993484020233154
35321.771,-0.014982150867581367,0.07181848585605621,0.4382767081260681,-0.6555135846138,-0.5095100402832031,-0.02040967531502247,-110.1400375366211,4.389150142669678,-18.63158416748047,32,16.0,1.0,158,-0.00797287654131651,0.044934436678886414,0.18658052384853363,-0.03958144411444664,0.002801265101879835,-0.007968197576701641,0.9991806745529175
35323.829,-0.014982150867581367,0.07181848585605621,0.4382767081260681,-0.8189624547958374,-0.5642986297607422,0.5409208536148071,-71.53828430175781,62.14019775390625,-427.385498046875,37,7.0,-1.0,159,-0.00797287654131651,0.044934436678886414,0.18658052384853363,-0.03958144411444664,0.002801265101879835,-0.007968197576701641,0.9991806745529175
35325.721,-0.0013275580713525414,0.09447088092565536,0.3862866163253784,-0.38944607973098755,0.1666473001241684,1.3130701780319214,18.99913787841797,65.69872283935547,-478.5685729980469,37,7.0,-1.0,159,-0.00797287654131651,0.044934436678886414,0.18658052384853363,-0.03958144411444664,0.002801265101879835,-0.007968197576701641,0.9991806745529175
35327.702,-0.0013275580713525414,0.09447088092565536,0.3862866163253784,0.07592795044183731,0.903668999671936,1.928206205368042,130.9171905517578,7.171825885772705,-189.9600372314453,37,7.0,-1.0,159,-0.011357338167726994,0.046271223574876785,0.18844342231750488,-0.03571078181266785,-0.012518603354692459,-0.02472902461886406,0.998977780342102
35329.734,-0.004449464846402407,0.09503420442342758,0.3372896909713745,0.16848856210708618,0.7369985580444336,2.1489195823669434,200.54080200195312,-40.81287384033203,142.52442932128906,37,7.0,-1.0,159,-0.011357338167726994,0.046271223574876785,0.18844342231750488,-0.03571078181266785,-0.012518603354692459,-0.02472902461886406,0.998977780342102
35331.677,-0.004449464846402407,0.09503420442342758,0.3372896909713745,-0.09513784945011139,-0.3441683053970337,2.2428154945373535,198.29884338378906,-41.7260627746582,314.5389709472656,37,7.0,-1.0,159,-0.011357338167726994,0.046271223574876785,0.18844342231750488,-0.03571078181266785,-0.012518603354692459,-0.02472902461886406,0.998977780342102
35333.715,-0.004449464846402407,0.09503420442342758,0.3372896909713745,-0.5214113593101501,-1.472984790802002,2.248802661895752,143.916015625,-18.198009490966797,267.7977600097656,37,7.0,-1.0,159,-0.012299129739403725,0.04701317846775055,0.1907072514295578,-0.03052522800862789,-0.011110351420938969,-0.027574794366955757,0.9990918040275574
35335.626,-0.005065207369625568,0.09498801082372665,0.35038071870803833,-0.6904786229133606,-1.6733428239822388,2.0038681030273438,77.85034942626953,0.9825063943862915,-4.885611057281494,37,7.0,-1.0,159,-0.012299129739403725,0.04701317846775055,0.1907072514295578,-0.03052522800862789,-0.011110351420938969,-0.027574794366955757,0.9990918040275574
35337.608,-0.005065207369625568,0.09498801082372665,0.35038071870803833,-0.41104766726493835,-0.5082827210426331,1.6351754665374756,15.808470726013184,8.272209167480469,-314.7334899902344,37,7.0,-1.0,159,-0.011705787852406502,0.04701057821512222,0.19376876950263977,-0.015495339408516884,-0.011738009750843048,-0.008518168702721596,0.9997747540473938
35339.643,-0.013455602340400219,0.11086657643318176,0.47230106592178345,0.1595311462879181,1.568697214126587,1.2618582248687744,-54.642276763916016,5.079394340515137,-388.3362121582031,37,7.0,-1.0,159,-0.011705787852406502,0.04701057821512222,0.19376876950263977,-0.015495339408516884,-0.011738009750843048,-0.008518168702721596,0.9997747540473938
35341.573,-0.013455602340400219,0.11086657643318176,0.47230106592178345,0.5419772863388062,3.431436061859131,0.9212996959686279,-114.84947204589844,-2.8998172283172607,-118.92326354980469,37,7.0,-1.0,159,-0.011705787852406502,0.04701057821512222,0.19376876950263977,-0.015495339408516884,-0.011738009750843048,-0.008518168702721596,0.9997747540473938
35343.624,-0.013455602340400219,0.11086657643318176,0.47230106592178345,0.3862539827823639,3.805778980255127,0.6086030006408691,-142.9703826904297,-12.577199935913086,362.6844177246094,43,6.0,-6.0,157,-0.01103015523403883,0.047530412673950195,0.19644814729690552,-0.02353948913514614,-0.007962832227349281,0.011569562368094921,0.9996242523193359
35345.531,-0.005044843070209026,0.13050450384616852,0.41845282912254333,-0.03531678393483162,2.168513536453247,0.4300936162471771,-131.97430419921875,-12.178840637207031,737.6555786132812,43,6.0,-6.0,157,-0.01103015523403883,0.047530412673950195,0.19644814729690552,-0.02353948913514614,-0.007962832227349281,0.011569562368094921,0.9996242523193359
35347.512,-0.005044843070209026,0.13050450384616852,0.41845282912254333,-0.41377389430999756,-0.6282361149787903,0.6082322597503662,-73.69750213623047,2.421877145767212,682.6962280273438,43,6.0,-6.0,157,-0.01103015523403883,0.047530412673950195,0.19644814729690552,-0.02353948913514614,-0.007962832227349281,0.011569562368094921,0.9996242523193359
35349.543,-0.008749052882194519,0.1335693895816803,0.4083615243434906,-0.6991463899612427,-2.93418288230896,0.9819096922874451,-7.6374640464782715,14.432915687561035,158.7522735595703,43,6.0,-6.0,157,-0.013150960206985474,0.049007516354322433,0.19769303500652313,-0.04049151390790939,-0.011885622516274452,0.0010843051131814718,0.999108612537384
35351.481,-0.00940677896142006,0.13334311544895172,0.42200177907943726,-0.8774010539054871,-3.753451108932495,1.232374668121338,46.48216247558594,4.288132667541504,-481.4400329589844,43,6.0,-6.0,157,-0.013150960206985474,0.049007516354322433,0.19769303500652313,-0.04049151390790939,-0.011885622516274452,0.0010843051131814718,0.999108612537384
35353.539,-0.00940677896142006,0.13334311544895172,0.42200177907943726,-0.806545615196228,-3.3476271629333496,1.3723098039627075,103.89240264892578,-15.825690269470215,-832.5698852539062,43,6.0,-6.0,157,-0.013150960206985474,0.049007516354322433,0.19769303500652313,-0.04049151390790939,-0.011885622516274452,0.0010843051131814718,0.999108612537384
35355.445,-0.00940677896142006,0.13334311544895172,0.42200177907943726,-0.4310016632080078,-2.1354551315307617,1.5249016284942627,160.31802368164062,-20.1361026763916,-752.389892578125,43,6.0,-6.0,157,-0.013473235070705414,0.051062144339084625,0.2012866586446762,-0.028424091637134552,-0.015363065525889397,-0.015702810138463974,0.9993545413017273
35357.419,-0.010068759322166443,0.13321325182914734,0.4356606900691986,-0.05669558048248291,-0.609217643737793,1.5698683261871338,171.0309295654297,-8.753165245056152,-384.5082702636719,43,6.0,-6.0,157,-0.013473235070705414,0.051062144339084625,0.2012866586446762,-0.028424091637134552,-0.015363065525889397,-0.015702810138463974,0.9993545413017273
35359.461,-0.014280000701546669,0.1418679803609848,0.45340001583099365,0.036409277468919754,0.35340622067451477,1.4105170965194702,123.4041976928711,-8.544869422912598,34.69205856323242,43,6.0,-6.0,157,-0.014639005996286869,0.051185786724090576,0.20426008105278015,-0.018097443506121635,-0.01865558885037899,-0.03081042319536209,0.9991872906684875
35361.386,-0.01507080439478159,0.14162839949131012,0.4685210883617401,0.04648798331618309,0.2161906361579895,1.3261367082595825,58.726707458496094,-33.110198974609375,349.5995788574219,43,6.0,-6.0,157,-0.014639005996286869,0.051185786724090576,0.20426008105278015,-0.018097443506121635,-0.01865558885037899,-0.03081042319536209,0.9991872906684875
35363.443,-0.03186444938182831,0.11600491404533386,0.40510743856430054,0.06599203497171402,-0.7796449661254883,1.2131223678588867,8.277665138244629,-40.40434646606445,407.2534484863281,46,-1.0,-1.0,152,-0.014639005996286869,0.051185786724090576,0.20426008105278015,-0.018097443506121635,-0.01865558885037899,-0.03081042319536209,0.9991872906684875
35365.342,-0.03186444938182831,0.11600491404533386,0.40510743856430054,0.12193319201469421,-1.7122845649719238,0.9618851542472839,-16.074329376220703,-13.582938194274902,136.71890258789062,46,-1.0,-1.0,152,-0.014492914080619812,0.05146150290966034,0.20736417174339294,-0.02524404786527157,-0.015844004228711128,-0.03690357506275177,0.998874306678772
35367.329,-0.03234320878982544,0.11633860319852829,0.41760897636413574,0.11714925616979599,-1.9189667701721191,0.7055752277374268,-25.40935707092285,13.251120567321777,-229.96939086914062,46,-1.0,-1.0,152,-0.014492914080619812,0.05146150290966034,0.20736417174339294,-0.02524404786527157,-0.015844004228711128,-0.03690357506275177,0.998874306678772
35369.352,-0.03667827323079109,0.12346435338258743,0.44107967615127563,0.05997111275792122,-1.5433883666992188,0.6521432995796204,-19.721508026123047,15.872756958007812,-341.126220703125,46,-1.0,-1.0,152,-0.014492914080619812,0.05146150290966034,0.20736417174339294,-0.02524404786527157,-0.015844004228711128,-0.03690357506275177,0.998874306678772
35371.294,-0.03667827323079109,0.12346435338258743,0.44107967615127563,0.10353493690490723,-0.9787377715110779,0.7417116761207581,20.99135398864746,-0.45792537927627563,-92.80753326416016,46,-1.0,-1.0,152,-0.015734968706965446,0.051822301000356674,0.21075382828712463,-0.021738126873970032,-0.01771262288093567,-0.022331884130835533,0.9993573427200317
35373.335,-0.03725305572152138,0.1238350048661232,0.4551258087158203,0.050243668258190155,-0.5133413076400757,0.5879300832748413,76.37561798095703,-32.902469635009766,261.4415588378906,46,-1.0,-1.0,152,-0.015734968706965446,0.051822301000356674,0.21075382828712463,-0.021738126873970032,-0.01771262288093567,-0.022331884130835533,0.9993573427200317
35375.247,-0.03725305572152138,0.1238350048661232,0.4551258087158203,-0.08432785421609879,-0.22556190192699432,0.17557045817375183,78.51390838623047,-57.646446228027344,369.1427917480469,46,-1.0,-1.0,152,-0.015734968706965446,0.051822301000356674,0.21075382828712463,-0.021738126873970032,-0.01771262288093567,-0.022331884130835533,0.9993573427200317
35377.225,-0.03725305572152138,0.1238350048661232,0.4551258087158203,-0.0008623994654044509,0.1577373743057251,0.012293510138988495,5.052759170532227,-49.917850494384766,171.23255920410156,46,-1.0,-1.0,152,-0.01606007106602192,0.051381874829530716,0.21301409602165222,-0.021690266206860542,-0.01802155189216137,-0.013384434394538403,0.9995127320289612
35379.257,-0.03871512413024902,0.1256428211927414,0.4173348546028137,0.15916961431503296,0.5910220742225647,0.12772199511528015,-84.03765106201172,-24.24220848083496,-86.69954681396484,46,-1.0,-1.0,152,-0.01606007106602192,0.051381874829530716,0.21301409602165222,-0.021690266206860542,-0.01802155189216137,-0.013384434394538403,0.9995127320289612
35381.198,-0.03871512413024902,0.1256428211927414,0.4173348546028137,0.10399343818426132,0.924538254737854,0.3954186737537384,-141.09268188476562,-9.563201904296875,-165.8294677734375,46,-1.0,-1.0,152,-0.01606007106602192,0.051381874829530716,0.21301409602165222,-0.021690266206860542,-0.01802155189216137,-0.013384434394538403,0.9995127320289612
35383.247,-0.03871512413024902,0.1256428211927414,0.4173348546028137,-0.13315923511981964,1.2103567123413086,0.8760620951652527,-163.8448486328125,-15.577903747558594,-88.13530731201172,53,-3.0,6.0,151,-0.01677611656486988,0.05181175470352173,0.21606400609016418,-0.02550019696354866,-0.017111511901021004,-0.0034980839118361473,0.9995222687721252
35385.151,-0.042532023042440414,0.1573374718427658,0.3650718331336975,-0.3362383544445038,1.4792706966400146,1.2347768545150757,-161.56858825683594,-28.24790382385254,-45.43220138549805,53,-3.0,6.0,151,-0.01677611656486988,0.05181175470352173,0.21606400609016418,-0.02550019696354866,-0.017111511901021004,-0.0034980839118361473,0.9995222687721252
35387.132,-0.042532023042440414,0.1573374718427658,0.3650718331336975,-0.4074344038963318,1.555053472518921,1.208194375038147,-130.75497436523438,-42.7590217590332,-79.14461517333984,53,-3.0,6.0,151,-0.01677611656486988,0.05181175470352173,0.21606400609016418,-0.02550019696354866,-0.017111511901021004,-0.0034980839118361473,0.9995222687721252
35389.159,-0.04486702010035515,0.1563968062400818,0.34472447633743286,-0.3467126190662384,1.237044334411621,0.9174337387084961,-86.33175659179688,-45.65604782104492,-91.7624740600586,53,-3.0,6.0,151,-0.01720309443771839,0.051737502217292786,0.21822571754455566,-0.034696709364652634,-0.015924504026770592,-0.007030573207885027,0.9992462992668152
35391.094,-0.04486702010035515,0.1563968062400818,0.34472447633743286,-0.05346266180276871,0.6611297726631165,0.5560279488563538,-43.74491500854492,-24.568557739257812,-105.37156677246094,53,-3.0,6.0,151,-0.01720309443771839,0.051737502217292786,0.21822571754455566,-0.034696709364652634,-0.015924504026770592,-0.007030573207885027,0.9992462992668152
35393.144,-0.04486702010035515,0.1563968062400818,0.34472447633743286,0.33018627762794495,0.3575812876224518,0.2576185166835785,-0.2440229058265686,-5.876847743988037,-178.68487548828125,53,-3.0,6.0,151,-0.018101921305060387,0.05154111236333847,0.22070209681987762,-0.03692328557372093,-0.018112992867827415,-0.02865348942577839,0.9987429976463318
35395.056,-0.04554414749145508,0.1560601145029068,0.3588772714138031,0.5237182974815369,0.4531599283218384,0.11297020316123962,40.57844161987305,2.9960997104644775,-272.1171569824219,53,-3.0,6.0,151,-0.018101921305060387,0.05154111236333847,0.22070209681987762,-0.03692328557372093,-0.018112992867827415,-0.02865348942577839,0.9987429976463318
35397.037,-0.04554414749145508,0.1560601145029068,0.3588772714138031,0.4826998710632324,0.6162309050559998,0.2937034070491791,74.6358642578125,24.72365951538086,-290.2551574707031,53,-3.0,6.0,151,-0.018101921305060387,0.05154111236333847,0.22070209681987762,-0.03692328557372093,-0.018112992867827415,-0.02865348942577839,0.9987429976463318
35399.067,-0.04659535735845566,0.15773849189281464,0.3143434524536133,0.35915687680244446,0.6508552432060242,0.8934413194656372,107.5331802368164,51.55854415893555,-192.72607421875,53,-3.0,6.0,151,-0.01835683360695839,0.05309157818555832,0.22340260446071625,-0.030926169827580452,-0.01916142739355564,-0.05251588299870491,0.9979572296142578
35401.005,-0.04732922092080116,0.15738005936145782,0.3299713730812073,0.1859026700258255,0.5565604567527771,1.5526727437973022,144.27740478515625,45.76443099975586,-54.977298736572266,53,-3.0,6.0,151,-0.01835683360695839,0.05309157818555832,0.22340260446071625,-0.030926169827580452,-0.01916142739355564,-0.05251588299870491,0.9979572296142578
35403.062,-0.02531549707055092,0.1200837567448616,0.3775097131729126,-0.03935357183218002,0.308458536863327,1.889595627784729,174.85548400878906,12.611225128173828,64.55590057373047,61,2.0,7.0,149,-0.01835683360695839,0.05309157818555832,0.22340260446071625,-0.030926169827580452,-0.01916142739355564,-0.05251588299870491,0.9979572296142578
35404.959,-0.022382225841283798,0.11546897888183594,0.3136354386806488,-0.1175932064652443,0.045354440808296204,1.9554052352905273,181.5718994140625,-11.095178604125977,194.1270294189453,61,2.0,7.0,149,-0.01894318126142025,0.05427245423197746,0.22504711151123047,-0.024487163871526718,-0.023975666612386703,-0.06267044693231583,0.9974457025527954
35406.939,-0.022382225841283798,0.11546897888183594,0.3136354386806488,-0.10322713106870651,0.03360195830464363,1.6750597953796387,159.9528350830078,-29.072799682617188,277.63067626953125,61,2.0,7.0,149,-0.01894318126142025,0.05427245423197746,0.22504711151123047,-0.024487163871526718,-0.023975666612386703,-0.06267044693231583,0.9974457025527954
35408.977,-0.029479166492819786,0.12541653215885162,0.35143575072288513,-0.03773239627480507,0.41331034898757935,1.025282382965088,122.64183044433594,-51.26434326171875,183.5234832763672,61,2.0,7.0,149,-0.01894318126142025,0.05427245423197746,0.22504711151123047,-0.024487163871526718,-0.023975666612386703,-0.06267044693231583,0.9974457025527954
35410.904,-0.029479166492819786,0.12541653215885162,0.35143575072288513,0.22497744858264923,1.0447708368301392,0.4705903232097626,69.45406341552734,-42.57403564453125,5.373466491699219,61,2.0,7.0,149,-0.018897322937846184,0.05552256107330322,0.22787699103355408,-0.014046869240701199,-0.020578574389219284,-0.03672076389193535,0.9990150332450867
35412.954,-0.03045969270169735,0.1259796917438507,0.3649556040763855,0.4866016209125519,1.613806962966919,0.4234876334667206,-1.0641534328460693,1.2083126306533813,16.89647674560547,61,2.0,7.0,149,-0.018897322937846184,0.05552256107330322,0.22787699103355408,-0.014046869240701199,-0.020578574389219284,-0.03672076389193535,0.9990150332450867
35414.873,-0.03045969270169735,0.1259796917438507,0.3649556040763855,0.49896177649497986,1.7443270683288574,0.9190060496330261,-57.706111907958984,20.6254940032959,250.74560546875,61,2.0,7.0,149,-0.01904010772705078,0.05801602080464363,0.2296314835548401,-0.020431654527783394,-0.021136092022061348,-0.001529061933979392,0.9995667338371277
35416.843,-0.03145042434334755,0.12678579986095428,0.3782880902290344,0.3128201365470886,1.2402119636535645,1.5134433507919312,-79.59703063964844,6.703935623168945,445.3071594238281,61,2.0,7.0,149,-0.01904010772705078,0.05801602080464363,0.2296314835548401,-0.020431654527783394,-0.021136092022061348,-0.001529061933979392,0.9995667338371277
35418.873,-0.03477410599589348,0.13015535473823547,0.3654218912124634,-0.05292193964123726,0.5909450650215149,1.9257832765579224,-77.53732299804688,-1.2483081817626953,423.89263916015625,61,2.0,7.0,149,-0.01904010772705078,0.05801602080464363,0.2296314835548401,-0.020431654527783394,-0.021136092022061348,-0.001529061933979392,0.9995667338371277
35420.805,-0.03477410599589348,0.13015535473823547,0.3654218912124634,-0.37823253870010376,0.20016372203826904,1.999829649925232,-59.0250129699707,14.35885238647461,219.59063720703125,61,2.0,7.0,149,-0.019378729164600372,0.05889727547764778,0.2321617752313614,-0.022839633747935295,-0.02154935710132122,0.010189731605350971,0.999454915523529
35422.862,-0.035839103162288666,0.13103066384792328,0.38007643818855286,-0.4540061950683594,-0.10909485071897507,1.694911241531372,-4.075172424316406,26.365659713745117,-2.456749439239502,61,2.0,7.0,149,-0.019378729164600372,0.05889727547764778,0.2321617752313614,-0.022839633747935295,-0.02154935710132122,0.010189731605350971,0.999454915523529
35424.767,-0.022340595722198486,0.11839615553617477,0.38578692078590393,-0.3795606791973114,-0.7922379970550537,1.1865590810775757,69.77892303466797,17.528423309326172,-98.66018676757812,69,0.0,-10.0,147,-0.019378729164600372,0.05889727547764778,0.2321617752313614,-0.022839633747935295,-0.02154935710132122,0.010189731605350971,0.999454915523529
35426.754,-0.018339740112423897,0.11359044164419174,0.315788596868515,-0.22661970555782318,-1.8934983015060425,0.798979640007019,118.23571014404297,7.041630268096924,-103.55900573730469,69,0.0,-10.0,147,-0.01956011913716793,0.059904761612415314,0.23535317182540894,-0.02108246460556984,-0.022885462269186974,-0.004063477274030447,0.9995075464248657
35428.778,-0.02721291407942772,0.11978153139352798,0.3820139765739441,0.040992800146341324,-2.7625350952148438,0.7041266560554504,129.8868408203125,12.632137298583984,-142.256103515625,69,0.0,-10.0,147,-0.01956011913716793,0.059904761612415314,0.23535317182540894,-0.02108246460556984,-0.022885462269186974,-0.004063477274030447,0.9995075464248657
35430.716,-0.02721291407942772,0.11978153139352798,0.3820139765739441,0.24952061474323273,-2.7879951000213623,0.7298502922058105,120.99149322509766,37.893333435058594,-244.55657958984375,69,0.0,-10.0,147,-0.020249981433153152,0.061438001692295074,0.23792654275894165,-0.01284076739102602,-0.021787337958812714,-0.023419488221406937,0.9994058609008789
35432.76,-0.02835294045507908,0.1208343580365181,0.39581984281539917,0.20808041095733643,-2.110856056213379,0.7744206190109253,107.11582946777344,60.20995330810547,-291.2212829589844,69,0.0,-10.0,147,-0.020249981433153152,0.061438001692295074,0.23792654275894165,-0.01284076739102602,-0.021787337958812714,-0.023419488221406937,0.9994058609008789
35434.671,-0.02835294045507908,0.1208343580365181,0.39581984281539917,0.08700869232416153,-1.3287347555160522,0.959471583366394,102.11936950683594,49.63386154174805,-189.70004272460938,69,0.0,-10.0,147,-0.020249981433153152,0.061438001692295074,0.23792654275894165,-0.01284076739102602,-0.021787337958812714,-0.023419488221406937,0.9994058609008789
35436.652,-0.02835294045507908,0.1208343580365181,0.39581984281539917,0.058790113776922226,-0.8909440636634827,1.2475476264953613,105.62313079833984,12.145035743713379,8.687768936157227,69,0.0,-10.0,147,-0.021205436438322067,0.06281284987926483,0.2403799444437027,-0.006707522552460432,-0.02129065804183483,-0.03078952617943287,0.9992766380310059
35438.687,-0.03373320400714874,0.12569700181484222,0.3911483883857727,0.05297272652387619,-0.8928794860839844,1.502117395401001,94.46468353271484,-7.1498122215271,186.02154541015625,69,0.0,-10.0,147,-0.021205436438322067,0.06281284987926483,0.2403799444437027,-0.006707522552460432,-0.02129065804183483,-0.03078952617943287,0.9992766380310059
35440.618,-0.03373320400714874,0.12569700181484222,0.3911483883857727,0.033456072211265564,-1.2158629894256592,1.6770044565200806,65.30683898925781,-0.9155756235122681,262.2352294921875,69,0.0,-10.0,147,-0.021205436438322067,0.06281284987926483,0.2403799444437027,-0.006707522552460432,-0.02129065804183483,-0.03078952617943287,0.9992766380310059
35442.692,-0.03373320400714874,0.12569700181484222,0.3911483883857727,-0.022405460476875305,-1.700012445449829,1.5850285291671753,39.513465881347656,-3.320040225982666,225.6525115966797,69,-4.0,-10.0,146,-0.021139275282621384,0.062060173600912094,0.24422423541545868,-0.004981993231922388,-0.01862451247870922,-0.0193954948335886,0.999626100063324
35444.576,-0.034562040120363235,0.10376798361539841,0.3479812741279602,-0.058956846594810486,-1.9867982864379883,1.1942332983016968,25.581092834472656,-16.961999893188477,117.83918762207031,79,-4.0,-10.0,146,-0.021139275282621384,0.062060173600912094,0.24422423541545868,-0.004981993231922388,-0.01862451247870922,-0.0193954948335886,0.999626100063324
35446.557,-0.034562040120363235,0.10376798361539841,0.3479812741279602,-0.01698913425207138,-1.7855489253997803,0.696797251701355,25.372011184692383,-11.029878616333008,14.038296699523926,79,-4.0,-10.0,146,-0.021139275282621384,0.062060173600912094,0.24422423541545868,-0.004981993231922388,-0.01862451247870922,-0.0193954948335886,0.999626100063324
35448.585,-0.03977252170443535,0.10547975450754166,0.3883926272392273,0.004671990871429443,-1.0684260129928589,0.2660641074180603,25.952960968017578,2.2746517658233643,-25.50105857849121,79,-4.0,-10.0,146,-0.019089505076408386,0.05964629724621773,0.24726775288581848,0.006438219454139471,-0.008581813424825668,0.0011829858412966132,0.9999418258666992
35450.519,-0.04080142453312874,0.10640230774879456,0.40244928002357483,-0.06456185132265091,-0.18825244903564453,-0.05602628365159035,3.8214919567108154,-2.4683454036712646,-43.043540954589844,79,-4.0,-10.0,146,-0.019089505076408386,0.05964629724621773,0.24726775288581848,0.006438219454139471,-0.008581813424825668,0.0011829858412966132,0.9999418258666992
35452.585,-0.04080142453312874,0.10640230774879456,0.40244928002357483,-0.1621888279914856,0.5722501873970032,-0.21346300840377808,-44.18191909790039,-5.256923198699951,-36.043766021728516,79,-4.0,-10.0,146,-0.019089505076408386,0.05964629724621773,0.24726775288581848,0.006438219454139471,-0.008581813424825668,0.0011829858412966132,0.9999418258666992
35454.486,-0.04080142453312874,0.10640230774879456,0.40244928002357483,-0.13273842632770538,1.163958191871643,-0.08070991188287735,-88.20364379882812,2.1024515628814697,44.48875045776367,79,-4.0,-10.0,146,-0.022213004529476166,0.06304705888032913,0.24930192530155182,-0.007446034345775843,-0.01854824833571911,0.014263121411204338,0.9996985197067261
35456.463,-0.0419791005551815,0.10769101977348328,0.41635453701019287,0.002660762518644333,1.4297950267791748,0.2033728063106537,-114.63198852539062,3.6373980045318604,146.0479736328125,79,-4.0,-10.0,146,-0.022213004529476166,0.06304705888032913,0.24930192530155182,-0.007446034345775843,-0.01854824833571911,0.014263121411204338,0.9996985197067261
35458.499,-0.041253868490457535,0.10538756102323532,0.32567572593688965,0.019950367510318756,1.2284927368164062,0.5861570835113525,-133.80947875976562,-6.066380023956299,167.48873901367188,79,-4.0,-10.0,146,-0.022213004529476166,0.06304705888032913,0.24930192530155182,-0.007446034345775843,-0.01854824833571911,0.014263121411204338,0.9996985197067261
35460.422,-0.041253868490457535,0.10538756102323532,0.32567572593688965,-0.282571405172348,0.7696981430053711,1.0828888416290283,-153.78453063964844,-3.762030839920044,60.463382720947266,79,-4.0,-10.0,146,-0.02223871648311615,0.062363073229789734,0.251473605632782,-0.014509997330605984,-0.015084286220371723,0.003115459345281124,0.9997760653495789
35462.48,-0.04245056211948395,0.10658702254295349,0.3408675491809845,-0.6963518857955933,0.47071775794029236,1.5904606580734253,-160.81179809570312,10.847862243652344,-153.8059844970703,79,-4.0,-10.0,146,-0.02223871648311615,0.062363073229789734,0.251473605632782,-0.014509997330605984,-0.015084286220371723,0.003115459345281124,0.9997760653495789
35464.391,-0.04245056211948395,0.10658702254295349,0.3408675491809845,-0.7951880693435669,0.5480642914772034,1.7978618144989014,-126.85388946533203,15.067362785339355,-385.7934875488281,79,-1.0,-3.0,144,-0.02463895082473755,0.06248916685581207,0.25387489795684814,-0.016997577622532845,-0.016501091420650482,-0.010786507278680801,0.9996611475944519
35466.366,-0.032502710819244385,0.1302855908870697,0.30301231145858765,-0.6046784520149231,0.9539420008659363,1.464076042175293,-54.97610092163086,7.230876922607422,-445.31103515625,86,-1.0,-3.0,144,-0.02463895082473755,0.06248916685581207,0.25387489795684814,-0.016997577622532845,-0.016501091420650482,-0.010786507278680801,0.9996611475944519
35468.395,-0.036655981093645096,0.1295272409915924,0.314567506313324,-0.3560124635696411,1.4235501289367676,0.8426522612571716,8.179876327514648,-6.513136863708496,-247.55857849121094,86,-1.0,-3.0,144,-0.02463895082473755,0.06248916685581207,0.25387489795684814,-0.016997577622532845,-0.016501091420650482,-0.010786507278680801,0.9996611475944519
35470.327,-0.036655981093645096,0.1295272409915924,0.314567506313324,-0.0680752545595169,1.5892049074172974,0.40313470363616943,42.352073669433594,-23.519702911376953,38.38747024536133,86,-1.0,-3.0,144,-0.024729611352086067,0.06274106353521347,0.2562445402145386,-0.018573353067040443,-0.017971385270357132,-0.02391631156206131,0.9993799328804016
35472.387,-0.037919241935014725,0.13001342117786407,0.32849979400634766,0.17218156158924103,1.2694624662399292,0.2458125799894333,64.1368408203125,-27.033323287963867,180.50697326660156,86,-1.0,-3.0,144,-0.024729611352086067,0.06274106353521347,0.2562445402145386,-0.018573353067040443,-0.017971385270357132,-0.02391631156206131,0.9993799328804016
35474.294,-0.037919241935014725,0.13001342117786407,0.32849979400634766,0.22510762512683868,0.5464515089988708,0.33009982109069824,85.41082000732422,-0.3110945224761963,93.32072448730469,86,-1.0,-3.0,144,-0.024729611352086067,0.06274106353521347,0.2562445402145386,-0.018573353067040443,-0.017971385270357132,-0.02391631156206131,0.9993799328804016
35476.269,-0.037919241935014725,0.13001342117786407,0.32849979400634766,0.13805285096168518,-0.16882435977458954,0.7586275339126587,104.29545593261719,38.39604568481445,-95.2358627319336,86,-1.0,-3.0,144,-0.024508489295840263,0.06352781504392624,0.2589540183544159,-0.016632534563541412,-0.014504901133477688,-0.03724352642893791,0.9990624785423279
35478.3,-0.04042323678731918,0.13191942870616913,0.3041294813156128,0.0008199458825401962,-0.5098398923873901,1.3240737915039062,127.64159393310547,56.43861389160156,-196.9306182861328,86,-1.0,-3.0,144,-0.024508489295840263,0.06352781504392624,0.2589540183544159,-0.016632534563541412,-0.014504901133477688,-0.03724352642893791,0.9990624785423279
35480.232,-0.04042323678731918,0.13191942870616913,0.3041294813156128,-0.16973085701465607,-0.3372606933116913,1.5151317119598389,158.57769775390625,45.145389556884766,-156.44778442382812,86,-1.0,-3.0,144,-0.024508489295840263,0.06352781504392624,0.2589540183544159,-0.016632534563541412,-0.014504901133477688,-0.03724352642893791,0.9990624785423279
35482.318,-0.04042323678731918,0.13191942870616913,0.3041294813156128,-0.14029313623905182,0.43461155891418457,1.224778175354004,181.24826049804688,13.668261528015137,-61.12770462036133,86,-1.0,-3.0,144,-0.024508489295840263,0.06352781504392624,0.2589540183544159,-0.016632534563541412,-0.014504901133477688,-0.03724352642893791,0.9990624785423279
35484.201,-0.04042323678731918,0.13191942870616913,0.3041294813156128,0.1334177702665329,1.43857741355896,0.7683905363082886,163.59671020507812,-20.20801544189453,7.541605472564697,86,-3.0,-4.0,143,-0.02639761008322239,0.06550610810518265,0.2609041631221771,-0.007227351423352957,-0.021396955475211143,-0.03646872565150261,0.9990795850753784
35486.177,-0.037946466356515884,0.09523309022188187,0.29333925247192383,0.43246233463287354,2.051527738571167,0.44023433327674866,96.33720397949219,-15.902304649353027,94.93196105957031,102,-3.0,-4.0,143,-0.02639761008322239,0.06550610810518265,0.2609041631221771,-0.007227351423352957,-0.021396955475211143,-0.03646872565150261,0.9990795850753784
35488.204,-0.043352238833904266,0.09966622292995453,0.3209565579891205,0.617764949798584,1.9877331256866455,0.6162351965904236,23.015790939331055,15.524391174316406,248.0105743408203,102,-3.0,-4.0,143,-0.026987943798303604,0.06774887442588806,0.26306599378585815,-0.0019822095055133104,-0.018932435661554337,-0.014465057291090488,0.9997142553329468
35490.137,-0.043352238833904266,0.09966622292995453,0.3209565579891205,0.4821946620941162,1.2512165307998657,1.217292308807373,-32.8822021484375,28.793596267700195,349.0585632324219,102,-3.0,-4.0,143,-0.026987943798303604,0.06774887442588806,0.26306599378585815,-0.0019822095055133104,-0.018932435661554337,-0.014465057291090488,0.9997142553329468
35492.186,-0.043352238833904266,0.09966622292995453,0.3209565579891205,0.1868276447057724,0.23926636576652527,1.8415347337722778,-63.49427032470703,22.397449493408203,243.36940002441406,102,-3.0,-4.0,143,-0.02744564786553383,0.06848479062318802,0.2648032009601593,-0.005023424047976732,-0.018025005236268044,-0.005712962243705988,0.9998086094856262
35494.099,-0.04464887082576752,0.10096032172441483,0.3344179689884186,-0.12379542738199234,-0.3708493411540985,2.2665979862213135,-62.11486053466797,21.262231826782227,3.5471198558807373,102,-3.0,-4.0,143,-0.02744564786553383,0.06848479062318802,0.2648032009601593,-0.005023424047976732,-0.018025005236268044,-0.005712962243705988,0.9998086094856262
35496.089,-0.04464887082576752,0.10096032172441483,0.3344179689884186,-0.37586289644241333,-0.28419509530067444,2.2803540229797363,-36.520992279052734,36.77759552001953,-199.0782928466797,102,-3.0,-4.0,143,-0.02744564786553383,0.06848479062318802,0.2648032009601593,-0.005023424047976732,-0.018025005236268044,-0.005712962243705988,0.9998086094856262
35498.108,-0.04903362691402435,0.09970883280038834,0.36957234144210815,-0.3221198320388794,0.19069361686706543,1.9451216459274292,20.21636390686035,37.02116012573242,-265.4950256347656,102,-3.0,-4.0,143,-0.02836044318974018,0.07018844038248062,0.267416387796402,-0.0027107964269816875,-0.01751171238720417,-0.007002048660069704,0.9998184442520142
35500.041,-0.05042877048254013,0.10107029229402542,0.384426087141037,-0.09340538084506989,0.35188958048820496,1.3186064958572388,83.63932800292969,10.709887504577637,-144.3728790283203,102,-3.0,-4.0,143,-0.02836044318974018,0.07018844038248062,0.267416387796402,-0.0027107964269816875,-0.01751171238720417,-0.007002048660069704,0.9998184442520142
35502.106,-0.05042877048254013,0.10107029229402542,0.384426087141037,0.07014910131692886,-0.42495039105415344,0.648810625076294,114.88117980957031,-8.999258041381836,74.49610137939453,102,-3.0,-4.0,143,-0.02836044318974018,0.07018844038248062,0.267416387796402,-0.0027107964269816875,-0.01751171238720417,-0.007002048660069704,0.9998184442520142
35504.009,-0.05042877048254013,0.10107029229402542,0.384426087141037,0.14580628275871277,-1.9251689910888672,0.3499780297279358,112.8193359375,3.2097842693328857,147.87184143066406,102,-3.0,-4.0,143,-0.02870863676071167,0.07112109661102295,0.27110305428504944,-0.0016271504573523998,-0.017003171145915985,-0.024687832221388817,0.999549388885498
35505.99,-0.054212626069784164,0.07433193922042847,0.40805310010910034,0.19092606008052826,-3.0908732414245605,0.39326193928718567,96.3172378540039,37.40885925292969,-38.995849609375,102,-5.0,-7.0,141,-0.02870863676071167,0.07112109661102295,0.27110305428504944,-0.0016271504573523998,-0.017003171145915985,-0.024687832221388817,0.999549388885498
35508.018,-0.05383018031716347,0.0700472891330719,0.36069807410240173,0.1826592981815338,-3.154961109161377,0.5245238542556763,86.1388168334961,61.921058654785156,-298.31365966796875,107,-5.0,-7.0,141,-0.030050840228796005,0.07239652425050735,0.27313336730003357,0.005526763387024403,-0.017406705766916275,-0.03955041989684105,0.9990507364273071
35509.946,-0.05513397231698036,0.07180386781692505,0.3739350438117981,0.18367889523506165,-2.360264301300049,0.8099743723869324,90.66633605957031,61.66488265991211,-368.7771301269531,107,-5.0,-7.0,141,-0.030050840228796005,0.07239652425050735,0.27313336730003357,0.005526763387024403,-0.017406705766916275,-0.03955041989684105,0.9990507364273071
35511.996,-0.05513397231698036,0.07180386781692505,0.3739350438117981,0.29157862067222595,-1.376218318939209,1.2298009395599365,102.81841278076172,38.67354965209961,-205.8434295654297,107,-5.0,-7.0,141,-0.030050840228796005,0.07239652425050735,0.27313336730003357,0.005526763387024403,-0.017406705766916275,-0.03955041989684105,0.9990507364273071
35513.908,-0.05513397231698036,0.07180386781692505,0.3739350438117981,0.3627792000770569,-0.7827417254447937,1.661759614944458,108.11776733398438,8.3985013961792,56.352298736572266,107,-5.0,-7.0,141,-0.030374938622117043,0.07300762832164764,0.2758587896823883,0.013472658582031727,-0.01593361608684063,-0.033683452755212784,0.999214768409729
35515.888,-0.05641748756170273,0.07347184419631958,0.387062668800354,0.21486902236938477,-0.8108993172645569,1.9598816633224487,86.28092193603516,-1.535423755645752,278.74102783203125,107,-5.0,-7.0,141,-0.030374938622117043,0.07300762832164764,0.2758587896823883,0.013472658582031727,-0.01593361608684063,-0.033683452755212784,0.999214768409729
35517.918,-0.059032708406448364,0.07237420976161957,0.38603293895721436,-0.046986259520053864,-1.3012490272521973,1.9452322721481323,53.50300216674805,2.517702579498291,370.9544372558594,107,-5.0,-7.0,141,-0.030374938622117043,0.07300762832164764,0.2758587896823883,0.013472658582031727,-0.01593361608684063,-0.033683452755212784,0.999214768409729
