timestamp,stateEstimate.vx,stateEstimate.vy,stateEstimate.vz,acc.x,acc.y,acc.z,gyro.x,gyro.y,gyro.z,range.zrange,motion.deltaX,motion.deltaY,motion.motion,locSrv.x,locSrv.y,locSrv.z,locSrv.qx,locSrv.qy,locSrv.qz,locSrv.qw
26882.797,0.011743330396711826,-0.005226472392678261,-0.022687489166855812,0.017843514680862427,-0.01703764498233795,1.0000925064086914,-0.06405849754810333,0.07299510389566422,-0.07775665074586868,22,0,0,48,0.008245931938290596,0.22190000116825104,0.14958646893501282,6.987585948081687e-05,-0.005260420963168144,0.0320267453789711,-0.9994731545448303
26884.778,0.011743330396711826,-0.005226472392678261,-0.022687489166855812,0.017617322504520416,-0.016992419958114624,1.0003714561462402,0.08591746538877487,0.08428311347961426,0.09543393552303314,22,0,0,48,0.008245931938290596,0.22190000116825104,0.14958646893501282,6.987585948081687e-05,-0.005260420963168144,0.0320267453789711,-0.9994731545448303
26886.762,0.012227260507643223,-0.0054861027747392654,-0.022623201832175255,0.017442617565393448,-0.01724226027727127,1.0008474588394165,0.10032801330089569,0.23339951038360596,0.24347837269306183,22,0,0,48,0.008261984214186668,0.2219344824552536,0.14959704875946045,8.125682506943122e-05,-0.0052570560947060585,0.03204984962940216,-0.9994724988937378
26888.82,0.012019582092761993,-0.005333485081791878,-0.009937675669789314,0.017191508784890175,-0.017473410815000534,1.001053810119629,0.013901549391448498,0.18464729189872742,0.2487853616476059,22,0,0,48,0.008261984214186668,0.2219344824552536,0.14959704875946045,8.125682506943122e-05,-0.0052570560947060585,0.03204984962940216,-0.9994724988937378
26890.738,0.012019582092761993,-0.005333485081791878,-0.009937675669789314,0.017293686047196388,-0.01750369556248188,1.000956654548645,0.07864851504564285,0.05643155053257942,0.1435519903898239,22,0,0,48,0.008261984214186668,0.2219344824552536,0.14959704875946045,8.125682506943122e-05,-0.0052570560947060585,0.03204984962940216,-0.9994724988937378
26892.7,0.012019582092761993,-0.005333485081791878,-0.009937675669789314,0.017753316089510918,-0.017501359805464745,1.000839114189148,0.1357397586107254,0.05247429385781288,0.06161966547369957,22,0,1,176,0.008259095251560211,0.22188210487365723,0.14957019686698914,-5.282593338051811e-05,-0.005156863480806351,0.03220053017139435,-0.9994681477546692
26894.692,0.009283912368118763,-0.004716421477496624,0.0022005129139870405,0.017995528876781464,-0.017504658550024033,1.0009965896606445,-0.11540229618549347,0.10525350272655487,0.033780407160520554,22,0,1,176,0.008259095251560211,0.22188210487365723,0.14957019686698914,-5.282593338051811e-05,-0.005156863480806351,0.03220053017139435,-0.9994681477546692
26896.663,0.009707607328891754,-0.005018217489123344,0.002317148493602872,0.017929647117853165,-0.017476921901106834,1.0012160539627075,-0.18227043747901917,0.20850303769111633,-0.07603318989276886,22,0,1,176,0.00829317793250084,0.22196632623672485,0.14964129030704498,0.00020027758728247136,-0.005261716432869434,0.032174061983823776,-0.9994684457778931
26898.734,0.009566707536578178,-0.004872431978583336,0.01539215724915266,0.01817275770008564,-0.017519915476441383,1.0010024309158325,-0.023181257769465446,0.2752920985221863,-0.12749166786670685,22,0,1,176,0.00829317793250084,0.22196632623672485,0.14964129030704498,0.00020027758728247136,-0.005261716432869434,0.032174061983823776,-0.9994684457778931
26900.625,0.009566707536578178,-0.004872431978583336,0.01539215724915266,0.01863466203212738,-0.01775127835571766,1.0006413459777832,0.008173668757081032,0.17919614911079407,-0.041696831583976746,22,0,1,176,0.00829317793250084,0.22196632623672485,0.14964129030704498,0.00020027758728247136,-0.005261716432869434,0.032174061983823776,-0.9994684457778931
26902.61,0.009566707536578178,-0.004872431978583336,0.01539215724915266,0.018647659569978714,-0.018250184133648872,1.0005500316619873,-0.072504922747612,0.06260711699724197,0.022667163982987404,22,0,0,48,0.008274695836007595,0.2219134420156479,0.14959202706813812,-1.8676189938560128e-05,-0.005182252265512943,0.03217214345932007,-0.9994689226150513
26904.587,0.009436240419745445,-0.0047483546659350395,0.027832606807351112,0.018181830644607544,-0.018809890374541283,1.000626564025879,-0.022538423538208008,0.03228623792529106,0.04696465656161308,22,0,0,48,0.008274695836007595,0.2219134420156479,0.14959202706813812,-1.8676189938560128e-05,-0.005182252265512943,0.03217214345932007,-0.9994689226150513
26906.568,0.009942336939275265,-0.005100367125123739,0.027945557609200478,0.017773980274796486,-0.018759138882160187,1.000511884689331,0.055410079658031464,0.07426465302705765,0.05043918266892433,22,0,0,48,0.008274695836007595,0.2219134420156479,0.14959202706813812,-1.8676189938560128e-05,-0.005182252265512943,0.03217214345932007,-0.9994689226150513
26908.628,0.009942336939275265,-0.005100367125123739,0.027945557609200478,0.017121542245149612,-0.018134769052267075,1.000250220298767,0.05284396559000015,0.1051936149597168,-0.08071339130401611,22,0,0,48,0.00827116146683693,0.22186116874217987,0.14962312579154968,-0.00016851889085955918,-0.005313249304890633,0.032066334038972855,-0.9994716048240662
26910.53,0.009791946038603783,-0.004971059504896402,0.04124584421515465,0.01629761792719364,-0.01745099574327469,0.9998690485954285,0.10892214626073837,0.08929753303527832,-0.10749891400337219,22,0,0,48,0.00827116146683693,0.22186116874217987,0.14962312579154968,-0.00016851889085955918,-0.005313249304890633,0.032066334038972855,-0.9994716048240662
26912.523,0.009791946038603783,-0.004971059504896402,0.04124584421515465,0.01606493815779686,-0.0170071329921484,0.9995197057723999,0.1810287982225418,0.20405873656272888,0.006847369950264692,22,0,0,48,0.00827116146683693,0.22186116874217987,0.14962312579154968,-0.00016851889085955918,-0.005313249304890633,0.032066334038972855,-0.9994716048240662
26914.497,0.009791946038603783,-0.004971059504896402,0.04124584421515465,0.016559869050979614,-0.016825122758746147,0.9991050362586975,-0.027309229597449303,0.14464575052261353,0.06312902271747589,22,0,0,48,0.008251330815255642,0.22187884151935577,0.14954951405525208,-3.180985731887631e-05,-0.005104432348161936,0.03208394721150398,-0.9994722008705139
26916.478,0.01059403084218502,-0.006130788009613752,-0.05858447775244713,0.017190951853990555,-0.016758909448981285,0.9986119866371155,-0.32214483618736267,-0.05763928219676018,0.014676445163786411,15,0,0,48,0.008251330815255642,0.22187884151935577,0.14954951405525208,-3.180985731887631e-05,-0.005104432348161936,0.03208394721150398,-0.9994722008705139
26918.533,0.01059403084218502,-0.006130788009613752,-0.05858447775244713,0.017906496301293373,-0.016807176172733307,0.9982893466949463,-0.26773494482040405,-0.06410849094390869,-0.048102471977472305,15,0,0,48,0.008246835321187973,0.22196505963802338,0.1496134251356125,0.00020596840477082878,-0.005046078935265541,0.03215600922703743,-0.9994701743125916
26920.44,0.010435592383146286,-0.005986165255308151,-0.04722623527050018,0.018643436953425407,-0.01691051386296749,0.9985345005989075,-0.1384545862674713,-0.013998257927596569,-0.0018045339966192842,15,0,0,48,0.008246835321187973,0.22196505963802338,0.1496134251356125,0.00020596840477082878,-0.005046078935265541,0.03215600922703743,-0.9994701743125916
26922.415,0.013522333465516567,-0.004595947451889515,-0.047243718057870865,0.01895071566104889,-0.017247816547751427,0.9993190169334412,0.06483477354049683,0.051378097385168076,0.05011430010199547,15,-1,-3,176,0.008246835321187973,0.22196505963802338,0.1496134251356125,0.00020596840477082878,-0.005046078935265541,0.03215600922703743,-0.9994701743125916
26924.399,0.013522333465516567,-0.004595947451889515,-0.047243718057870865,0.01859130896627903,-0.017728835344314575,1.0001494884490967,0.25468993186950684,0.13028649985790253,0.07726742327213287,15,-1,-3,176,0.008235862478613853,0.22200556099414825,0.14958533644676208,0.0002909304166678339,-0.005066041834652424,0.03212626650929451,-0.9994709491729736
26926.377,0.013892928138375282,-0.004739060532301664,-0.0364006906747818,0.01816386543214321,-0.018073314800858498,1.000762939453125,0.2321578562259674,0.23026159405708313,-0.08463232964277267,15,-1,-3,176,0.008235862478613853,0.22200556099414825,0.14958533644676208,0.0002909304166678339,-0.005066041834652424,0.03212626650929451,-0.9994709491729736
26928.437,0.013892928138375282,-0.004739060532301664,-0.0364006906747818,0.018201040104031563,-0.01810590922832489,1.000885009765625,0.1399357169866562,0.3259037435054779,-0.2868154048919678,15,-1,-3,176,0.008235862478613853,0.22200556099414825,0.14958533644676208,0.0002909304166678339,-0.005066041834652424,0.03212626650929451,-0.9994709491729736
26930.337,0.013892928138375282,-0.004739060532301664,-0.0364006906747818,0.01846822164952755,-0.01794024184346199,1.0005971193313599,0.03084435500204563,0.2294309288263321,-0.34186699986457825,15,-1,-3,176,0.0082444092258811,0.22193750739097595,0.14958727359771729,7.743947935523465e-05,-0.005124521441757679,0.03213406354188919,-0.9994704723358154
26932.319,0.01176116056740284,-0.0055079385638237,-0.024314358830451965,0.01831289753317833,-0.017961451783776283,1.0003355741500854,-0.08252183347940445,0.12150325626134872,-0.22328433394432068,15,1,1,176,0.0082444092258811,0.22193750739097595,0.14958727359771729,7.743947935523465e-05,-0.005124521441757679,0.03213406354188919,-0.9994704723358154
26934.3,0.01176116056740284,-0.0055079385638237,-0.024314358830451965,0.01766490563750267,-0.018276093527674675,1.0003365278244019,-0.08384548872709274,0.21308587491512299,-0.01306091994047165,15,1,1,176,0.0082444092258811,0.22193750739097595,0.14958727359771729,7.743947935523465e-05,-0.005124521441757679,0.03213406354188919,-0.9994704723358154
26936.28,0.01176116056740284,-0.0055079385638237,-0.024314358830451965,0.01710614562034607,-0.018598929047584534,1.000588059425354,-0.16727283596992493,0.27061328291893005,0.054388973861932755,15,1,1,176,0.008284087292850018,0.22192265093326569,0.14961686730384827,8.890226308722049e-05,-0.005330801010131836,0.03211011737585068,-0.9994701743125916
26938.351,0.012104344554245472,-0.005726660136133432,-0.01105541456490755,0.017013734206557274,-0.018674714490771294,1.001084804534912,-0.3165612518787384,0.2523065209388733,0.011513857170939445,15,1,1,176,0.008284087292850018,0.22192265093326569,0.14961686730384827,8.890226308722049e-05,-0.005330801010131836,0.03211011737585068,-0.9994701743125916
26940.251,0.012104344554245472,-0.005726660136133432,-0.01105541456490755,0.017045123502612114,-0.018401680514216423,1.0016374588012695,-0.14502766728401184,0.19354133307933807,-0.029105128720402718,15,1,1,176,0.008284087292850018,0.22192265093326569,0.14961686730384827,8.890226308722049e-05,-0.005330801010131836,0.03211011737585068,-0.9994701743125916
26942.223,0.012104344554245472,-0.005726660136133432,-0.01105541456490755,0.017024748027324677,-0.01799863390624523,1.0017374753952026,0.1338062584400177,0.1681285798549652,-0.08518097549676895,15,0,2,176,0.008253960870206356,0.22187261283397675,0.14956505596637726,-0.00010525119432713836,-0.005239099729806185,0.03226660192012787,-0.9994655251502991
26944.205,0.009055429138243198,-0.005170293152332306,0.001530475215986371,0.017031166702508926,-0.01763422228395939,1.0016324520111084,0.03247265890240669,0.2030494660139084,-0.07839125394821167,15,0,2,176,0.008253960870206356,0.22187261283397675,0.14956505596637726,-0.00010525119432713836,-0.005239099729806185,0.03226660192012787,-0.9994655251502991
26946.186,0.009432537481188774,-0.0055553424172103405,0.0016845413483679295,0.01724761351943016,-0.017277617007493973,1.0016287565231323,-0.17602595686912537,0.14053964614868164,-0.08291187137365341,15,0,2,176,0.008264637552201748,0.22192606329917908,0.14951832592487335,0.00019725313177332282,-0.005151176825165749,0.032228708267211914,-0.9994672536849976
26948.253,0.009298852644860744,-0.005414554849267006,0.015246394090354443,0.017537523061037064,-0.017084171995520592,1.0014073848724365,-0.18774402141571045,-0.067540742456913,-0.13819023966789246,15,0,2,176,0.008264637552201748,0.22192606329917908,0.14951832592487335,0.00019725313177332282,-0.005151176825165749,0.032228708267211914,-0.9994672536849976
26950.147,0.009298852644860744,-0.005414554849267006,0.015246394090354443,0.01746159978210926,-0.01699288748204708,1.0010795593261719,-0.228155717253685,-0.288261353969574,-0.14128391444683075,15,0,2,176,0.008264637552201748,0.22192606329917908,0.14951832592487335,0.00019725313177332282,-0.005151176825165749,0.032228708267211914,-0.9994672536849976
26952.127,0.009298852644860744,-0.005414554849267006,0.015246394090354443,0.017182042822241783,-0.01693587563931942,1.0009995698928833,-0.24979937076568604,-0.24864816665649414,-0.07698468863964081,15,0,-1,176,0.008244413882493973,0.2219165414571762,0.14962206780910492,0.0001174283679574728,-0.005062102805823088,0.03216855227947235,-0.9994696974754333
26954.109,0.009715555235743523,-0.004981674253940582,0.028151683509349823,0.016897598281502724,-0.017056254670023918,1.0008982419967651,-0.1577337682247162,-0.06124328449368477,-0.005432171281427145,15,0,-1,176,0.008244413882493973,0.2219165414571762,0.14962206780910492,0.0001174283679574728,-0.005062102805823088,0.03216855227947235,-0.9994696974754333
26956.092,0.010135047137737274,-0.005247723776847124,0.028301188722252846,0.016668226569890976,-0.017156684771180153,1.0007108449935913,-0.05371829867362976,-0.02184544876217842,0.019342325627803802,15,0,-1,176,0.008244413882493973,0.2219165414571762,0.14962206780910492,0.0001174283679574728,-0.005062102805823088,0.03216855227947235,-0.9994696974754333
26958.159,0.010135047137737274,-0.005247723776847124,0.028301188722252846,0.016963541507720947,-0.017237843945622444,1.0008749961853027,-0.018388798460364342,-0.006794922053813934,-0.1263681799173355,15,0,-1,176,0.008243978954851627,0.2218961864709854,0.14962971210479736,-5.7259629102190956e-05,-0.005144341383129358,0.032196443527936935,-0.9994683861732483
26960.059,0.00999356433749199,-0.005119075998663902,0.042086999863386154,0.017554698511958122,-0.017351459711790085,1.0012078285217285,-0.05165015906095505,0.04806491360068321,-0.24556705355644226,20,0,-1,176,0.008243978954851627,0.2218961864709854,0.14962971210479736,-5.7259629102190956e-05,-0.005144341383129358,0.032196443527936935,-0.9994683861732483
26962.042,0.006578612141311169,-0.00656897621229291,-0.05268917232751846,0.01774878427386284,-0.01754644513130188,1.0012015104293823,-0.07669452577829361,0.06633338332176208,-0.22299239039421082,20,1,3,176,0.008290475234389305,0.22188834846019745,0.14958180487155914,-2.5869911041809246e-05,-0.005483608692884445,0.0322786308825016,-0.9994639158248901
26964.013,0.006519864313304424,-0.006453528068959713,-0.041754212230443954,0.017568256705999374,-0.01772155612707138,1.00076162815094,0.003697913372889161,0.12313323467969894,-0.1181626096367836,20,1,3,176,0.008290475234389305,0.22188834846019745,0.14958180487155914,-2.5869911041809246e-05,-0.005483608692884445,0.0322786308825016,-0.9994639158248901
26965.994,0.006883159279823303,-0.006753844209015369,-0.041631586849689484,0.017420649528503418,-0.017618712037801743,1.000368595123291,0.1166837140917778,-0.0028102530632168055,-0.01605735905468464,20,1,3,176,0.008290475234389305,0.22188834846019745,0.14958180487155914,-2.5869911041809246e-05,-0.005483608692884445,0.0322786308825016,-0.9994639158248901
26968.066,0.006883159279823303,-0.006753844209015369,-0.041631586849689484,0.017368894070386887,-0.01730782724916935,0.9999856352806091,-0.027091581374406815,-0.1817900389432907,-0.007506103254854679,20,1,3,176,0.008248616009950638,0.2219073623418808,0.14954541623592377,9.845438034972176e-05,-0.005090753547847271,0.032239437103271484,-0.9994672536849976
26969.956,0.006799398455768824,-0.006615460850298405,-0.02946624718606472,0.01736035756766796,-0.017058800905942917,0.9995900988578796,-0.22522176802158356,-0.16868020594120026,-0.06699909269809723,20,1,3,176,0.008248616009950638,0.2219073623418808,0.14954541623592377,9.845438034972176e-05,-0.005090753547847271,0.032239437103271484,-0.9994672536849976
26971.937,0.007510555908083916,-0.006293031387031078,-0.02946573868393898,0.0176154226064682,-0.01699943095445633,0.9995695352554321,-0.19775913655757904,0.08613754063844681,-0.09641317278146744,20,0,-1,176,0.008248616009950638,0.2219073623418808,0.14954541623592377,9.845438034972176e-05,-0.005090753547847271,0.032239437103271484,-0.9994672536849976
26973.918,0.007510555908083916,-0.006293031387031078,-0.02946573868393898,0.018006447702646255,-0.01712314411997795,0.9999247193336487,-0.0923771858215332,0.29215121269226074,-0.058275140821933746,20,0,-1,176,0.008273186162114143,0.22187775373458862,0.14964334666728973,-0.00024549756199121475,-0.005298099480569363,0.03212599828839302,-0.9994698166847229
26975.898,0.00787003617733717,-0.006501165684312582,-0.017755232751369476,0.01816766895353794,-0.01748477667570114,1.0004081726074219,-0.037834715098142624,0.20771756768226624,0.022660227492451668,20,0,-1,176,0.008273186162114143,0.22187775373458862,0.14964334666728973,-0.00024549756199121475,-0.005298099480569363,0.03212599828839302,-0.9994698166847229
26977.983,0.00787003617733717,-0.006501165684312582,-0.017755232751369476,0.018230071291327477,-0.01791316643357277,1.0007725954055786,-0.14133326709270477,-0.07586944103240967,0.03116774931550026,20,0,-1,176,0.008273186162114143,0.22187775373458862,0.14964334666728973,-0.00024549756199121475,-0.005298099480569363,0.03212599828839302,-0.9994698166847229
26979.867,0.00787003617733717,-0.006501165684312582,-0.017755232751369476,0.01825122721493244,-0.018152780830860138,1.0008673667907715,-0.19770658016204834,-0.18351612985134125,-0.041041698306798935,20,0,-1,176,0.008313347585499287,0.22188691794872284,0.14959004521369934,-0.0001691179786575958,-0.005417810287326574,0.032216876745224,-0.9994662404060364
26981.841,0.00840902328491211,-0.006046083755791187,-0.00476456806063652,0.01784185878932476,-0.018124956637620926,1.0009225606918335,-0.1581874042749405,-0.0021240536589175463,-0.10724756866693497,20,0,-1,176,0.008313347585499287,0.22188691794872284,0.14959004521369934,-0.0001691179786575958,-0.005417810287326574,0.032216876745224,-0.9994662404060364
26983.822,0.00840902328491211,-0.006046083755791187,-0.00476456806063652,0.01735994964838028,-0.018139051273465157,1.0009794235229492,-0.12220845371484756,0.3018072545528412,-0.09069138765335083,20,0,-1,176,0.008313347585499287,0.22188691794872284,0.14959004521369934,-0.0001691179786575958,-0.005417810287326574,0.032216876745224,-0.9994662404060364
26985.802,0.00840902328491211,-0.006046083755791187,-0.00476456806063652,0.017159098759293556,-0.01829150877892971,1.0008723735809326,0.04305972531437874,0.44761937856674194,-0.0630599781870842,20,0,-1,176,0.008282899856567383,0.22186419367790222,0.1495629847049713,-0.00012664702080655843,-0.005454894155263901,0.03231404721736908,-0.999462902545929
26987.874,0.008782301098108292,-0.006337091792374849,0.007767624221742153,0.017220471054315567,-0.01827852427959442,1.0007058382034302,0.2299458235502243,0.36755019426345825,-0.0010262606665492058,20,0,-1,176,0.008282899856567383,0.22186419367790222,0.1495629847049713,-0.00012664702080655843,-0.005454894155263901,0.03231404721736908,-0.999462902545929
26989.765,0.008782301098108292,-0.006337091792374849,0.007767624221742153,0.017111800611019135,-0.017672080546617508,1.0004171133041382,0.17603038251399994,0.24254842102527618,0.08257897943258286,20,0,-1,176,0.008257509209215641,0.2219616323709488,0.1495857536792755,0.00026122573763132095,-0.005068280268460512,0.03228920325636864,-0.9994657635688782
26991.747,0.008663691580295563,-0.006188637111335993,0.02140805497765541,0.016861332580447197,-0.016866782680153847,1.0002005100250244,-0.016219453886151314,0.014159214682877064,0.1109333261847496,20,0,0,48,0.008257509209215641,0.2219616323709488,0.1495857536792755,0.00026122573763132095,-0.005068280268460512,0.03228920325636864,-0.9994657635688782
26993.727,0.008663691580295563,-0.006188637111335993,0.02140805497765541,0.016744796186685562,-0.016265515238046646,0.9998956322669983,-0.07250745594501495,-0.1710735410451889,0.04111951217055321,20,0,0,48,0.008257509209215641,0.2219616323709488,0.1495857536792755,0.00026122573763132095,-0.005068280268460512,0.03228920325636864,-0.9994657635688782
26995.708,0.008663691580295563,-0.006188637111335993,0.02140805497765541,0.01688232086598873,-0.016112782061100006,0.9992905259132385,-0.031814128160476685,-0.04064298793673515,-0.0968770980834961,20,0,0,48,0.008272494189441204,0.22195842862129211,0.1495884209871292,0.00018640619236975908,-0.0052384138107299805,0.03208683058619499,-0.9994714260101318
26997.769,0.008938812650740147,-0.006351288408041,0.03442356362938881,0.01723351515829563,-0.016123803332448006,0.9988823533058167,-0.041739046573638916,0.012470564804971218,-0.23071226477622986,20,0,0,48,0.008272494189441204,0.22195842862129211,0.1495884209871292,0.00018640619236975908,-0.0052384138107299805,0.03208683058619499,-0.9994714260101318
26999.669,0.008938812650740147,-0.006351288408041,0.03442356362938881,0.017235703766345978,-0.016086267307400703,0.9989887475967407,-0.1220850795507431,-0.023223383352160454,-0.3377545475959778,20,0,0,48,0.008272494189441204,0.22195842862129211,0.1495884209871292,0.00018640619236975908,-0.0052384138107299805,0.03208683058619499,-0.9994714260101318
27001.661,0.008938812650740147,-0.006351288408041,0.03442356362938881,0.01687418296933174,-0.01603115163743496,0.9994597434997559,-0.12091439962387085,-0.08804012089967728,-0.3155463933944702,20,0,0,48,0.008282669819891453,0.22196196019649506,0.149593785405159,0.00016381280147470534,-0.005184574518352747,0.03207232058048248,-0.9994721412658691
27003.638,0.00881280843168497,-0.006196717265993357,0.048485446721315384,0.016474567353725433,-0.01610315591096878,1.0000123977661133,0.1344800442457199,-0.036843158304691315,-0.15671105682849884,20,0,0,48,0.008282669819891453,0.22196196019649506,0.149593785405159,0.00016381280147470534,-0.005184574518352747,0.03207232058048248,-0.9994721412658691
27005.622,0.00935335736721754,-0.0070357006043195724,-0.05359704792499542,0.0163746178150177,-0.016198603436350822,1.000130534172058,0.30896228551864624,0.1225239709019661,0.024570250883698463,18,0,0,48,0.008282669819891453,0.22196196019649506,0.149593785405159,0.00016381280147470534,-0.005184574518352747,0.03207232058048248,-0.9994721412658691
27007.672,0.00935335736721754,-0.0070357006043195724,-0.05359704792499542,0.0164642296731472,-0.016273021697998047,0.9995611310005188,0.1506534218788147,0.15258164703845978,-0.0009412644430994987,18,0,0,48,0.00826618354767561,0.2219136655330658,0.14957110583782196,-3.0083896490396e-05,-0.005252646282315254,0.03212030604481697,-0.9994702935218811
27009.574,0.009608633816242218,-0.007107441779226065,-0.04236742854118347,0.01643289066851139,-0.016374893486499786,0.9991154670715332,-0.05221649631857872,-0.029542744159698486,-0.15685422718524933,18,0,0,48,0.00826618354767561,0.2219136655330658,0.14957110583782196,-3.0083896490396e-05,-0.005252646282315254,0.03212030604481697,-0.9994702935218811
27011.564,0.0090559097006917,-0.00787921529263258,-0.04236587882041931,0.016428232192993164,-0.0166950561106205,0.9990798830986023,0.004795839544385672,-0.16880518198013306,-0.2645176947116852,18,1,0,176,0.00826618354767561,0.2219136655330658,0.14957110583782196,-3.0083896490396e-05,-0.005252646282315254,0.03212030604481697,-0.9994702935218811
27013.535,0.0090559097006917,-0.00787921529263258,-0.04236587882041931,0.016657395288348198,-0.0168918427079916,0.999172031879425,0.1381801813840866,-0.09394528716802597,-0.3466835618019104,18,1,0,176,0.008317535743117332,0.22193017601966858,0.14955151081085205,0.00011877570068463683,-0.0053628915920853615,0.032089121639728546,-0.9994707107543945
27015.516,0.008941827341914177,-0.0077185495756566525,-0.029643027111887932,0.017125122249126434,-0.01697491854429245,0.9993835091590881,-0.010632920078933239,0.21295124292373657,-0.25122329592704773,18,1,0,176,0.008317535743117332,0.22193017601966858,0.14955151081085205,0.00011877570068463683,-0.0053628915920853615,0.032089121639728546,-0.9994707107543945
27017.589,0.008941827341914177,-0.0077185495756566525,-0.029643027111887932,0.017432017251849174,-0.017240989953279495,0.9994756579399109,-0.17309920489788055,0.5066322684288025,-0.06403287500143051,18,1,0,176,0.00830113235861063,0.221904918551445,0.14955534040927887,0.00012237638293299824,-0.005355052649974823,0.03204461932182312,-0.9994720816612244
27019.488,0.009119409136474133,-0.007792426273226738,-0.01572251133620739,0.01744466833770275,-0.017533913254737854,0.9995107650756836,-0.16090905666351318,0.5015109777450562,0.08377347886562347,18,1,0,176,0.00830113235861063,0.221904918551445,0.14955534040927887,0.00012237638293299824,-0.005355052649974823,0.03204461932182312,-0.9994720816612244
27021.459,0.00879000686109066,-0.006238138768821955,-0.01571488194167614,0.017184358090162277,-0.017705563455820084,0.999784529209137,-0.19922097027301788,0.30504465103149414,0.12140841782093048,18,-1,0,176,0.00830113235861063,0.221904918551445,0.14955534040927887,0.00012237638293299824,-0.005355052649974823,0.03204461932182312,-0.9994720816612244
27023.444,0.00879000686109066,-0.006238138768821955,-0.01571488194167614,0.016842635348439217,-0.017942272126674652,1.0000518560409546,-0.3064641058444977,0.09288691729307175,-0.013894696719944477,18,-1,0,176,0.008257261477410793,0.22185850143432617,0.14961224794387817,-0.00018934591207653284,-0.005276144947856665,0.03224310651421547,-0.9994661808013916
27025.422,0.008669223636388779,-0.006105941254645586,-0.0023745689541101456,0.016464296728372574,-0.0180903859436512,1.000179648399353,-0.1987960785627365,-0.040151678025722504,-0.2336721420288086,18,-1,0,176,0.008257261477410793,0.22185850143432617,0.14961224794387817,-0.00018934591207653284,-0.005276144947856665,0.03224310651421547,-0.9994661808013916
27027.518,0.008669223636388779,-0.006105941254645586,-0.0023745689541101456,0.016183124855160713,-0.018022703006863594,1.0004767179489136,-0.022002918645739555,-0.030894998461008072,-0.19993552565574646,18,-1,0,176,0.008257261477410793,0.22185850143432617,0.14961224794387817,-0.00018934591207653284,-0.005276144947856665,0.03224310651421547,-0.9994661808013916
27029.38,0.009008916094899178,-0.006440548226237297,-0.0023613632656633854,0.01629369705915451,-0.01775520294904709,1.0009629726409912,0.0018217783654108644,0.09642365574836731,-0.0001275340182473883,18,-1,0,176,0.008262627758085728,0.22189800441265106,0.14961519837379456,-8.375541074201465e-05,-0.005205659195780754,0.032175060361623764,-0.9994686841964722
27031.365,0.008867251686751842,-0.0062847621738910675,0.01212864276021719,0.01652153767645359,-0.017412032932043076,1.0011882781982422,-0.014740857295691967,0.21090857684612274,0.10606861114501953,18,0,0,48,0.008262627758085728,0.22189800441265106,0.14961519837379456,-8.375541074201465e-05,-0.005205659195780754,0.032175060361623764,-0.9994686841964722
27033.344,0.008867251686751842,-0.0062847621738910675,0.01212864276021719,0.016570696607232094,-0.01718512549996376,1.0009832382202148,-0.1524782031774521,0.15652211010456085,0.10865673422813416,18,0,0,48,0.008238730020821095,0.221888929605484,0.14957894384860992,5.701806003344245e-06,-0.005087472964078188,0.0321684405207634,-0.9994695782661438
27035.323,0.008734929375350475,-0.006142724305391312,0.025895748287439346,0.01646413467824459,-0.017165860161185265,1.0004953145980835,-0.1586187332868576,-0.029080107808113098,-0.02545531839132309,18,0,0,48,0.008238730020821095,0.221888929605484,0.14957894384860992,5.701806003344245e-06,-0.005087472964078188,0.0321684405207634,-0.9994695782661438
27037.422,0.008734929375350475,-0.006142724305391312,0.025895748287439346,0.016712108626961708,-0.017096098512411118,1.000129222869873,-0.0012114623095840216,-0.011266367509961128,-0.011073026806116104,18,0,0,48,0.008238730020821095,0.221888929605484,0.14957894384860992,5.701806003344245e-06,-0.005087472964078188,0.0321684405207634,-0.9994695782661438
27039.285,0.009022939018905163,-0.0064442395232617855,0.026002775877714157,0.01718144677579403,-0.016702845692634583,0.9998911023139954,-1.5313045878428966e-05,0.07146180421113968,0.23140138387680054,18,0,0,48,0.008285745978355408,0.2219141721725464,0.149643674492836,-2.4338982257177122e-05,-0.005209479480981827,0.031983211636543274,-0.9994748830795288
27041.279,0.009022939018905163,-0.0064442395232617855,0.026002775877714157,0.017592810094356537,-0.016981692984700203,0.9999370574951172,0.04725693166255951,0.0685775876045227,-0.05344885587692261,18,0,-2,176,0.008285745978355408,0.2219141721725464,0.149643674492836,-2.4338982257177122e-05,-0.005209479480981827,0.031983211636543274,-0.9994748830795288
27043.247,0.010667817667126656,-0.005998286884278059,0.040787018835544586,0.018358543515205383,-0.01791907474398613,1.0001996755599976,0.08927671611309052,0.23363040387630463,-1.4080030918121338,18,0,-2,176,0.008285745978355408,0.2219141721725464,0.149643674492836,-2.4338982257177122e-05,-0.005209479480981827,0.031983211636543274,-0.9994748830795288
27045.241,0.010667817667126656,-0.005998286884278059,0.040787018835544586,0.02011183649301529,-0.01948566921055317,1.0002270936965942,0.034068040549755096,0.5198694467544556,-3.8949880599975586,18,0,-2,176,0.008272587321698666,0.22189757227897644,0.14958013594150543,3.897145506925881e-05,-0.005256450269371271,0.032064639031887054,-0.9994719624519348
27047.349,0.010521940886974335,-0.005860175006091595,0.05478482320904732,0.022383427247405052,-0.0221940316259861,1.000204086303711,-0.0936296284198761,0.6174189448356628,-7.454746723175049,18,0,-2,176,0.008272587321698666,0.22189757227897644,0.14958013594150543,3.897145506925881e-05,-0.005256450269371271,0.032064639031887054,-0.9994719624519348
27049.19,0.011652459390461445,-0.0071687111631035805,-0.06048678606748581,0.02523978054523468,-0.024179283529520035,1.0000081062316895,-0.40307730436325073,0.6736030578613281,-11.622529983520508,17,0,-2,176,0.008272587321698666,0.22189757227897644,0.14958013594150543,3.897145506925881e-05,-0.005256450269371271,0.032064639031887054,-0.9994719624519348
27051.171,0.011652459390461445,-0.0071687111631035805,-0.06048678606748581,0.029943309724330902,-0.02540758065879345,0.9995742440223694,-0.8548663258552551,0.6558451056480408,-14.44511604309082,17,0,0,48,0.008254457265138626,0.22183366119861603,0.14958183467388153,-0.00014997670950833708,-0.005284374579787254,0.03218267858028412,-0.9994680285453796
27053.152,0.01148801390081644,-0.007031450513750315,-0.04804561659693718,0.03848061338067055,-0.025519436225295067,0.9987079501152039,-0.9683603644371033,0.7023259401321411,-13.747377395629883,17,0,0,48,0.008254457265138626,0.22183366119861603,0.14958183467388153,-0.00014997670950833708,-0.005284374579787254,0.03218267858028412,-0.9994680285453796
27055.142,0.01148801390081644,-0.007031450513750315,-0.04804561659693718,0.04580455645918846,-0.018628191202878952,0.9967223405838013,-0.6529722809791565,0.9386271834373474,-7.186152458190918,17,0,0,48,0.008254457265138626,0.22183366119861603,0.14958183467388153,-0.00014997670950833708,-0.005284374579787254,0.03218267858028412,-0.9994680285453796
27057.247,0.01148801390081644,-0.007031450513750315,-0.04804561659693718,0.04663434624671936,-0.01009304728358984,0.9947570562362671,-0.060123514384031296,1.243897557258606,4.17636775970459,17,0,0,48,0.009018300101161003,0.22203567624092102,0.14900366961956024,0.002295711077749729,-0.00546027347445488,0.03402723744511604,-0.9994033575057983
27059.095,0.009732439182698727,-0.005269856192171574,-0.036240074783563614,0.043593812733888626,-0.005994113627821207,0.9941822290420532,0.5452256202697754,1.5545849800109863,12.817548751831055,17,0,0,48,0.009018300101161003,0.22203567624092102,0.14900366961956024,0.002295711077749729,-0.00546027347445488,0.03402723744511604,-0.9994033575057983
27061.076,0.008498474955558777,-0.005100024398416281,-0.03623688593506813,0.03841068968176842,-0.003984909970313311,0.9942418932914734,0.8312613368034363,1.7469698190689087,14.112105369567871,17,0,1,176,0.008333656936883926,0.2219056636095047,0.149644136428833,6.603456131415442e-05,-0.005321335978806019,0.03218181058764458,-0.9994679093360901
27063.056,0.008349590003490448,-0.004946316592395306,-0.022936686873435974,0.02976050227880478,-0.0029409846756607294,0.9951490759849548,0.8326730728149414,1.7784148454666138,11.206130981445312,17,0,1,176,0.008333656936883926,0.2219056636095047,0.149644136428833,6.603456131415442e-05,-0.005321335978806019,0.03218181058764458,-0.9994679093360901
27065.037,0.008349590003490448,-0.004946316592395306,-0.022936686873435974,0.021314425393939018,-0.003528584260493517,0.9959995150566101,0.4261130690574646,1.6091684103012085,8.308243751525879,17,0,1,176,0.008333656936883926,0.2219056636095047,0.149644136428833,6.603456131415442e-05,-0.005321335978806019,0.03218181058764458,-0.9994679093360901
27067.138,0.008349590003490448,-0.004946316592395306,-0.022936686873435974,0.01635255292057991,-0.0069839865900576115,0.9966524243354797,0.1329648494720459,1.408719539642334,6.2172088623046875,17,0,1,176,0.008288467302918434,0.22185775637626648,0.14966006577014923,-0.0003543960046954453,-0.004795708227902651,0.03241638466715813,-0.999462902545929
27068.999,0.0065791490487754345,-0.0032091126777231693,-0.008806021884083748,0.01151313353329897,-0.010886150412261486,0.997721791267395,0.07687747478485107,1.2912846803665161,5.226518630981445,17,0,1,176,0.008288467302918434,0.22185775637626648,0.14966006577014923,-0.0003543960046954453,-0.004795708227902651,0.03241638466715813,-0.999462902545929
27070.979,0.0065791490487754345,-0.0032091126777231693,-0.008806021884083748,0.0073413546197116375,-0.012523667886853218,0.9991588592529297,0.1810905784368515,1.0225560665130615,5.086849212646484,17,0,0,48,0.008288467302918434,0.22185775637626648,0.14966006577014923,-0.0003543960046954453,-0.004795708227902651,0.03241638466715813,-0.999462902545929
27072.96,0.0065791490487754345,-0.0032091126777231693,-0.008806021884083748,0.0049234414473176,-0.014047524891793728,1.0006952285766602,0.412400484085083,0.753333568572998,5.034500598907471,17,0,0,48,0.008288467302918434,0.22185775637626648,0.14966006577014923,-0.0003543960046954453,-0.004795708227902651,0.03241638466715813,-0.999462902545929
27074.941,0.0065791490487754345,-0.0032091126777231693,-0.008806021884083748,0.0022035122383385897,-0.017445826902985573,1.0018953084945679,0.45067572593688965,0.5721247792243958,4.313561916351318,17,0,0,48,0.008294177241623402,0.22187654674053192,0.14958052337169647,0.0001301252341363579,-0.005210195668041706,0.03237120062112808,-0.999462366104126
27077.043,0.00641762837767601,-0.0030542423482984304,0.005067638121545315,-0.0020698148291558027,-0.02157885767519474,1.0026321411132812,0.235808864235878,0.41311657428741455,2.8776683807373047,17,0,0,48,0.008294177241623402,0.22187654674053192,0.14958052337169647,0.0001301252341363579,-0.005210195668041706,0.03237120062112808,-0.999462366104126
27078.903,0.004943302366882563,-0.001522453036159277,0.004984756000339985,-0.007571091875433922,-0.024027248844504356,1.0025527477264404,-0.03439538553357124,0.07332006841897964,1.3585840463638306,17,0,0,48,0.008352137170732021,0.22185127437114716,0.1496182680130005,-0.00011524840374477208,-0.0054436433129012585,0.03227052465081215,-0.9994643926620483
27080.883,0.004943302366882563,-0.001522453036159277,0.004984756000339985,-0.013014988042414188,-0.023105258122086525,1.0023897886276245,-0.26005035638809204,-0.4606468379497528,-0.013431200757622719,17,0,2,176,0.008352137170732021,0.22185127437114716,0.1496182680130005,-0.00011524840374477208,-0.0054436433129012585,0.03227052465081215,-0.9994643926620483
27082.874,0.0026144233997911215,-0.00118550646584481,0.020019693300127983,-0.017373988404870033,-0.020766768604516983,1.0028189420700073,-0.39179372787475586,-1.0246737003326416,-0.8835946917533875,17,0,2,176,0.008352137170732021,0.22185127437114716,0.1496182680130005,-0.00011524840374477208,-0.0054436433129012585,0.03227052465081215,-0.9994643926620483
27084.848,0.0026144233997911215,-0.00118550646584481,0.020019693300127983,-0.019908208400011063,-0.019489971920847893,1.003462314605713,-0.32610711455345154,-1.1408120393753052,-0.9299625158309937,17,0,2,176,0.008310627192258835,0.22185510396957397,0.14960123598575592,-9.064069672604091e-06,-0.005224229767918587,0.03239531069993973,-0.9994615316390991
27086.955,0.0024831932969391346,-0.0010352832032367587,0.034270599484443665,-0.018347878009080887,-0.019356606528162956,1.0042494535446167,-0.2866816818714142,-0.8839247822761536,-1.1912020444869995,17,0,2,176,0.008310627192258835,0.22185510396957397,0.14960123598575592,-9.064069672604091e-06,-0.005224229767918587,0.03239531069993973,-0.9994615316390991
27088.808,0.0011837605852633715,0.00045563775347545743,0.034427519887685776,-0.01081888284534216,-0.018553592264652252,1.004688024520874,-0.40400734543800354,-0.7975677251815796,-2.843304395675659,17,0,2,176,0.008290287107229233,0.22180260717868805,0.1496277153491974,-0.00017888940055854619,-0.005185924004763365,0.03241530805826187,-0.9994610548019409
27090.793,0.0011837605852633715,0.00045563775347545743,0.034427519887685776,0.0006344598950818181,-0.016531581059098244,1.0050921440124512,-0.5531592965126038,-0.7994171380996704,-4.18950080871582,17,0,-2,176,0.008290287107229233,0.22180260717868805,0.1496277153491974,-0.00017888940055854619,-0.005185924004763365,0.03241530805826187,-0.9994610548019409
27092.775,0.0026552733033895493,0.0006252115708775818,0.04965876042842865,0.01020053494721651,-0.014166970737278461,1.0055921077728271,-0.6007416844367981,-0.9558030962944031,-2.852095603942871,17,0,-2,176,0.008290287107229233,0.22180260717868805,0.1496277153491974,-0.00017888940055854619,-0.005185924004763365,0.03241530805826187,-0.9994610548019409
27094.75,0.0033843100536614656,-0.00034643462277017534,-0.05355646833777428,0.013155760243535042,-0.012810809537768364,1.0061522722244263,-0.4760555326938629,-1.4445905685424805,-0.48763027787208557,20,0,-2,176,0.008262843824923038,0.221814826130867,0.14961379766464233,-0.000220848000026308,-0.00516880676150322,0.032383084297180176,-0.9994621276855469
27096.861,0.0032425657846033573,-0.00021415913943201303,-0.04160640761256218,0.01235696766525507,-0.012033865787088871,1.0064133405685425,-0.18369439244270325,-1.9119716882705688,-0.23617352545261383,20,0,-2,176,0.008262843824923038,0.221814826130867,0.14961379766464233,-0.000220848000026308,-0.00516880676150322,0.032383084297180176,-0.9994621276855469
27098.712,0.001981632551178336,0.0012440003920346498,-0.0409834198653698,0.011723227798938751,-0.011354753747582436,1.0062949657440186,0.014163282699882984,-1.9896243810653687,-1.182000994682312,20,0,-2,176,0.008262843824923038,0.221814826130867,0.14961379766464233,-0.000220848000026308,-0.00516880676150322,0.032383084297180176,-0.9994621276855469
27100.705,0.001981632551178336,0.0012440003920346498,-0.0409834198653698,0.011189856566488743,-0.012496480718255043,1.0052276849746704,-0.05792991816997528,-1.7279874086380005,-0.7427745461463928,20,0,0,48,0.008211270906031132,0.221823588013649,0.14956426620483398,-7.967247802298516e-05,-0.0050500831566751,0.03257158771157265,-0.9994566440582275
27102.676,0.0018205017549917102,0.001391586265526712,-0.027636948972940445,0.011775003746151924,-0.015950646251440048,1.0028645992279053,-0.1760377734899521,-1.4004875421524048,0.05606386438012123,20,0,0,48,0.008211270906031132,0.221823588013649,0.14956426620483398,-7.967247802298516e-05,-0.0050500831566751,0.03257158771157265,-0.9994566440582275
27104.657,0.0018205017549917102,0.001391586265526712,-0.027636948972940445,0.01581159234046936,-0.018376987427473068,1.00002920627594,-0.30049067735671997,-1.4289575815200806,-0.06400563567876816,20,0,0,48,0.008211270906031132,0.221823588013649,0.14956426620483398,-7.967247802298516e-05,-0.0050500831566751,0.03257158771157265,-0.9994566440582275
27106.756,0.0016794883413240314,0.0015260420041158795,-0.014832953922450542,0.02049807831645012,-0.019207721576094627,0.9978002905845642,-0.34875354170799255,-1.639333963394165,0.1410386860370636,20,0,0,48,0.008276865817606449,0.22182373702526093,0.1497001051902771,-0.0002787057892419398,-0.005202265921980143,0.03236151486635208,-0.9994627237319946
27108.629,0.0004796625580638647,0.0029604558367282152,-0.0144377201795578,0.02323444001376629,-0.020568719133734703,0.9965001344680786,-0.2466101199388504,-1.528878092765808,0.6673755049705505,20,0,0,48,0.008276865817606449,0.22182373702526093,0.1497001051902771,-0.0002787057892419398,-0.005202265921980143,0.03236151486635208,-0.9994627237319946
27110.602,-0.0005681572365574539,0.002894924720749259,-0.014436229132115841,0.02520333230495453,-0.022585052996873856,0.9960370659828186,-0.08913979679346085,-1.2572543621063232,0.44535404443740845,20,0,1,176,0.0082755908370018,0.22186830639839172,0.14968882501125336,-5.9055935707874596e-05,-0.005121919792145491,0.03245922550559044,-0.9994599223136902
27112.581,-0.0007064923993311822,0.0030517468694597483,-0.0003823197039309889,0.02585463598370552,-0.024088501930236816,0.995705783367157,-0.02878212183713913,-1.1203376054763794,0.11419891566038132,20,0,1,176,0.0082755908370018,0.22186830639839172,0.14968882501125336,-5.9055935707874596e-05,-0.005121919792145491,0.03245922550559044,-0.9994599223136902
27114.562,-0.0007064923993311822,0.0030517468694597483,-0.0003823197039309889,0.024126272648572922,-0.02519010752439499,0.9950288534164429,-0.08474230021238327,-1.200846791267395,0.1327136904001236,20,0,1,176,0.0082755908370018,0.22186830639839172,0.14968882501125336,-5.9055935707874596e-05,-0.005121919792145491,0.03245922550559044,-0.9994599223136902
27116.674,-0.0007064923993311822,0.0030517468694597483,-0.0003823197039309889,0.021634502336382866,-0.025771768763661385,0.9944295287132263,-0.056909363716840744,-1.4263662099838257,-0.7697986960411072,20,0,1,176,0.0082755908370018,0.22186830639839172,0.14968882501125336,-5.9055935707874596e-05,-0.005121919792145491,0.03245922550559044,-0.9994599223136902
27118.524,-0.0020031265448778868,0.004610083997249603,0.014363103546202183,0.019829122349619865,-0.02541549690067768,0.9946472644805908,-0.05529877170920372,-1.3885749578475952,-2.369795083999634,20,0,1,176,0.008222050033509731,0.22185324132442474,0.14961554110050201,-1.8309365259483457e-05,-0.005039701703935862,0.03226332366466522,-0.9994667768478394
27120.504,-0.0020031265448778868,0.004610083997249603,0.014363103546202183,0.02012905851006508,-0.024139724671840668,0.9954241514205933,-0.20536808669567108,-1.2459745407104492,-3.7166736125946045,20,0,0,48,0.008222050033509731,0.22185324132442474,0.14961554110050201,-1.8309365259483457e-05,-0.005039701703935862,0.03226332366466522,-0.9994667768478394
27122.485,-0.0020031265448778868,0.004610083997249603,0.014363103546202183,0.02360718883574009,-0.019710589200258255,0.9959544539451599,-0.366216778755188,-1.0954920053482056,-3.4440181255340576,20,0,0,48,0.008147727698087692,0.22180074453353882,0.14959841966629028,-0.00028554402524605393,-0.00486243050545454,0.03244565427303314,-0.9994617104530334
27124.466,-0.0021495893597602844,0.004750323481857777,0.028740152716636658,0.02697594463825226,-0.014308280311524868,0.9966306686401367,-0.3095054626464844,-0.911887526512146,-0.7403490543365479,20,0,0,48,0.008147727698087692,0.22180074453353882,0.14959841966629028,-0.00028554402524605393,-0.00486243050545454,0.03244565427303314,-0.9994617104530334
27126.579,-0.0021495893597602844,0.004750323481857777,0.028740152716636658,0.02979801967740059,-0.01060798391699791,0.9976632595062256,0.11767103523015976,-0.8116419911384583,0.9563711285591125,20,0,0,48,0.008147727698087692,0.22180074453353882,0.14959841966629028,-0.00028554402524605393,-0.00486243050545454,0.03244565427303314,-0.9994617104530334
27128.433,-0.0034235483035445213,0.0062696319073438644,0.04348243772983551,0.03309272229671478,-0.007874864153563976,0.9990594387054443,0.5272678732872009,-0.7046058177947998,0.08955635875463486,20,0,0,48,0.008152701891958714,0.22182098031044006,0.14958558976650238,-0.00023661110026296228,-0.004761815071105957,0.03258068487048149,-0.9994577169418335
27130.419,-0.0012474956456571817,0.005829265341162682,0.04352274164557457,0.033294349908828735,-0.00788597110658884,1.0009961128234863,0.5199232697486877,-0.6370187997817993,-0.025479763746261597,20,0,-3,176,0.008152701891958714,0.22182098031044006,0.14958558976650238,-0.00023661110026296228,-0.004761815071105957,0.03258068487048149,-0.9994577169418335
27132.395,-0.0012474956456571817,0.005829265341162682,0.04352274164557457,0.030038975179195404,-0.011335994116961956,1.002720594406128,0.23072277009487152,-0.6322413682937622,0.6659935116767883,20,0,-3,176,0.008180548436939716,0.22189557552337646,0.1495913416147232,2.0865989426965825e-05,-0.00494785001501441,0.03251655027270317,-0.9994589686393738
27134.376,-0.00140635936986655,0.005985014606267214,0.05796506255865097,0.029781602323055267,-0.01458581443876028,1.0033107995986938,0.10624263435602188,-0.2751373052597046,-0.07918937504291534,20,0,-3,176,0.008180548436939716,0.22189557552337646,0.1495913416147232,2.0865989426965825e-05,-0.00494785001501441,0.03251655027270317,-0.9994589686393738
27136.487,-0.00140635936986655,0.005985014606267214,0.05796506255865097,0.03473229333758354,-0.01660250686109066,1.0024397373199463,0.17244350910186768,1.4933654069900513,-0.9798420667648315,20,0,-3,176,0.008180548436939716,0.22189557552337646,0.1495913416147232,2.0865989426965825e-05,-0.00494785001501441,0.03251655027270317,-0.9994589686393738
27138.333,-0.001643340801820159,0.006160316523164511,-0.05285457521677017,0.029908746480941772,-0.02054991014301777,1.0018149614334106,0.04627012461423874,3.220804452896118,-1.3607157468795776,20,0,-3,176,0.008155301213264465,0.22190305590629578,0.1496131867170334,9.728318400448188e-05,-0.004680340643972158,0.03248543292284012,-0.99946129322052
27140.312,-0.001643340801820159,0.006160316523164511,-0.05285457521677017,0.0017273604171350598,-0.02484796568751335,1.0019993782043457,-0.2995832562446594,0.5275766253471375,-3.1443803310394287,20,0,1,176,0.008155301213264465,0.22190305590629578,0.1496131867170334,9.728318400448188e-05,-0.004680340643972158,0.03248543292284012,-0.99946129322052
27142.294,-0.001995162107050419,0.006003108806908131,-0.04039137810468674,-0.03821321949362755,-0.028544604778289795,1.0025280714035034,-0.3497438132762909,-5.019241809844971,-5.823023796081543,20,0,1,176,0.008155301213264465,0.22190305590629578,0.1496131867170334,9.728318400448188e-05,-0.004680340643972158,0.03248543292284012,-0.99946129322052
27144.278,-0.001995162107050419,0.006003108806908131,-0.04039137810468674,-0.041699282824993134,-0.03385697305202484,1.004065752029419,0.1186274066567421,-6.573968887329102,-6.647171497344971,20,0,1,176,0.00815021526068449,0.2218656986951828,0.14964702725410461,-0.00010857183951884508,-0.0047147818841040134,0.03246389329433441,-0.999461829662323
27146.396,-0.002139689400792122,0.00614050542935729,-0.028423016890883446,0.019375817850232124,-0.01965027116239071,1.0018316507339478,0.8387436866760254,-0.899257242679596,4.551198959350586,20,0,1,176,0.00815021526068449,0.2218656986951828,0.14964702725410461,-0.00010857183951884508,-0.0047147818841040134,0.03246389329433441,-0.999461829662323
27148.237,-0.0032253346871584654,0.007480786181986332,-0.02809630148112774,0.0858711451292038,0.013020897284150124,0.9946063160896301,1.461269497871399,6.275767803192139,32.55469512939453,20,0,1,176,0.00815021526068449,0.2218656986951828,0.14964702725410461,-0.00010857183951884508,-0.0047147818841040134,0.03246389329433441,-0.999461829662323
27150.211,-0.0032253346871584654,0.007480786181986332,-0.02809630148112774,0.08509955555200577,0.018425703048706055,0.9906200170516968,1.404943585395813,6.063779354095459,44.774993896484375,20,0,0,48,0.008194166235625744,0.2218589186668396,0.14964044094085693,-0.00013805158960167319,-0.00508247222751379,0.032251548022031784,-0.9994668364524841
27152.199,-0.0033709753770381212,0.00762120122089982,-0.014981239102780819,0.04969805106520653,-0.010438586585223675,0.9899855852127075,0.1066301167011261,1.4359183311462402,13.402647972106934,20,0,0,48,0.008194166235625744,0.2218589186668396,0.14964044094085693,-0.00013805158960167319,-0.00508247222751379,0.032251548022031784,-0.9994668364524841
27154.189,-0.0033709753770381212,0.00762120122089982,-0.014981239102780819,0.035007886588573456,-0.028911292552947998,0.9907498359680176,-1.7815548181533813,-0.23977212607860565,-30.645164489746094,20,0,0,48,0.008194166235625744,0.2218589186668396,0.14964044094085693,-0.00013805158960167319,-0.00508247222751379,0.032251548022031784,-0.9994668364524841
27156.288,-0.0033709753770381212,0.00762120122089982,-0.014981239102780819,0.02627149596810341,-0.018302280455827713,0.9900258183479309,-2.834439992904663,-2.5443079471588135,-44.8321647644043,20,0,0,48,0.008182353340089321,0.22185885906219482,0.1495712399482727,-0.00011137430556118488,-0.005070831626653671,0.03236440569162369,-0.9994633197784424
27158.139,-0.004639578051865101,0.009055059403181076,-0.003177288454025984,0.005503556691110134,-0.004384813364595175,0.9891767501831055,-2.223346471786499,-5.411690711975098,-28.327314376831055,20,0,0,48,0.008182353340089321,0.22185885906219482,0.1495712399482727,-0.00011137430556118488,-0.005070831626653671,0.03236440569162369,-0.9994633197784424
27160.141,-0.004639578051865101,0.009055059403181076,-0.003177288454025984,0.0067730373702943325,-0.002763250842690468,0.9891308546066284,-0.14861734211444855,-0.902427613735199,-2.974444627761841,20,0,0,48,0.008177511394023895,0.2218654453754425,0.14959828555583954,-7.297698903130367e-05,-0.004881116095930338,0.03242668882012367,-0.9994621872901917
27162.124,-0.0047829896211624146,0.009185582399368286,0.010372220538556576,0.021530138328671455,-0.005634902510792017,0.987294614315033,1.3107658624649048,6.967037677764893,16.95110321044922,20,0,0,48,0.008177511394023895,0.2218654453754425,0.14959828555583954,-7.297698903130367e-05,-0.004881116095930338,0.03242668882012367,-0.9994621872901917
27164.096,-0.0047829896211624146,0.009185582399368286,0.010372220538556576,0.019191162660717964,-0.008538792841136456,0.9876039028167725,1.0973994731903076,6.406196594238281,20.873653411865234,20,0,0,48,0.008177511394023895,0.2218654453754425,0.14959828555583954,-7.297698903130367e-05,-0.004881116095930338,0.03242668882012367,-0.9994621872901917
27166.197,-0.0047829896211624146,0.009185582399368286,0.010372220538556576,0.012843393720686436,-0.01339951902627945,0.9914611577987671,0.3704691231250763,-0.10052146017551422,6.580263614654541,20,0,0,48,0.008147221058607101,0.22184859216213226,0.1496662199497223,-0.0001359542366117239,-0.004652031231671572,0.03239873796701431,-0.9994642734527588
27168.044,-0.005961275659501553,0.010583775117993355,0.023644661530852318,0.020158136263489723,-0.01755595952272415,0.9974930286407471,0.0003674086183309555,-2.2944929599761963,-8.427711486816406,20,0,0,48,0.008147221058607101,0.22184859216213226,0.1496662199497223,-0.0001359542366117239,-0.004652031231671572,0.03239873796701431,-0.9994642734527588
27170.038,-0.005961275659501553,0.010583775117993355,0.023644661530852318,0.017079830169677734,-0.017722662538290024,1.0019980669021606,-0.09990179538726807,-1.1492596864700317,-5.939293384552002,20,0,0,48,0.008147221058607101,0.22184859216213226,0.1496662199497223,-0.0001359542366117239,-0.004652031231671572,0.03239873796701431,-0.9994642734527588
27172.017,-0.005961275659501553,0.010583775117993355,0.023644661530852318,0.0008184589678421617,-0.014004770666360855,1.0052992105484009,0.08226855099201202,-1.616471767425537,8.373641014099121,20,0,0,48,0.00883494783192873,0.22151096165180206,0.1497328132390976,-0.0012643919326364994,-0.006744815036654472,0.03253515064716339,-0.9994471073150635
27173.994,-0.006034231279045343,0.010654977522790432,0.03734934702515602,0.0026915729977190495,-0.013786166906356812,1.0057799816131592,0.7458569407463074,-1.1937159299850464,17.07279396057129,20,0,0,48,0.00883494783192873,0.22151096165180206,0.1497328132390976,-0.0012643919326364994,-0.006744815036654472,0.03253515064716339,-0.9994471073150635
27176.094,-0.006034231279045343,0.010654977522790432,0.03734934702515602,0.03001217730343342,-0.023429321125149727,1.0062793493270874,1.2894494533538818,2.4067587852478027,12.741684913635254,20,0,0,48,0.00883494783192873,0.22151096165180206,0.1497328132390976,-0.0012643919326364994,-0.006744815036654472,0.03253515064716339,-0.9994471073150635
27177.951,-0.006952179595828056,0.011927097104489803,0.037344224750995636,0.05676751956343651,-0.031601037830114365,1.0061064958572388,1.0230447053909302,5.129062175750732,1.172695279121399,20,0,0,48,0.008162585087120533,0.22178959846496582,0.1495770663022995,-0.0002478801179677248,-0.004775307606905699,0.03250782564282417,-0.9994601011276245
27179.94,-0.007086192723363638,0.012025336734950542,0.05173860117793083,0.04795949161052704,-0.028756996616721153,1.0072660446166992,0.2623668313026428,3.2441720962524414,-2.6085689067840576,20,0,0,48,0.008162585087120533,0.22178959846496582,0.1495770663022995,-0.0002478801179677248,-0.004775307606905699,0.03250782564282417,-0.9994601011276245
27181.923,-0.007086192723363638,0.012025336734950542,0.05173860117793083,0.009910199791193008,-0.024266671389341354,1.0093644857406616,-0.24200990796089172,-1.837419867515564,6.588019847869873,18,0,0,48,0.008232306689023972,0.22186559438705444,0.14961734414100647,2.0769284674315713e-05,-0.0050980993546545506,0.03242809325456619,-0.9994610548019409
27183.902,-0.00620581628754735,0.010974057950079441,-0.04138577729463577,-0.010339774191379547,-0.027964770793914795,1.009564995765686,-0.02129749394953251,-4.567431926727295,17.023860931396484,18,0,0,48,0.008232306689023972,0.22186559438705444,0.14961734414100647,2.0769284674315713e-05,-0.0050980993546545506,0.03242809325456619,-0.9994610548019409
27185.994,-0.00620581628754735,0.010974057950079441,-0.04138577729463577,0.01019649300724268,-0.022327600046992302,1.0007227659225464,0.2525562644004822,-1.0533746480941772,18.83011245727539,18,0,0,48,0.008232306689023972,0.22186559438705444,0.14961734414100647,2.0769284674315713e-05,-0.0050980993546545506,0.03242809325456619,-0.9994610548019409
27187.854,-0.007144367787986994,0.01222549844533205,-0.0405278243124485,0.03135932981967926,0.000852355151437223,0.9897090196609497,-0.7173032760620117,5.764348983764648,9.405304908752441,18,0,0,48,0.008168553002178669,0.22187095880508423,0.14965778589248657,0.00012395388330332935,-0.004784110933542252,0.03247068449854851,-0.99946129322052
27189.862,-0.00726099219173193,0.012314231134951115,-0.02799047715961933,0.02634168229997158,0.02690608985722065,0.9831750988960266,-2.919552803039551,6.405149936676025,-12.055685043334961,18,0,0,48,0.008168553002178669,0.22187095880508423,0.14965778589248657,0.00012395388330332935,-0.004784110933542252,0.03247068449854851,-0.99946129322052
27191.821,-0.00726099219173193,0.012314231134951115,-0.02799047715961933,0.03646751865744591,0.05889047682285309,0.9810648560523987,-5.116156578063965,1.3148491382598877,-26.851987838745117,18,0,0,48,0.008168553002178669,0.22187095880508423,0.14965778589248657,0.00012395388330332935,-0.004784110933542252,0.03247068449854851,-0.99946129322052
27193.8,-0.00726099219173193,0.012314231134951115,-0.02799047715961933,0.0579487606883049,0.11146917194128036,0.9820590615272522,-6.747776508331299,-0.8300170302391052,-10.201343536376953,18,0,0,48,0.008185865357518196,0.221881702542305,0.14962078630924225,0.0001147125440184027,-0.004880215041339397,0.03254587575793266,-0.9994583129882812
27195.895,-0.007365384604781866,0.012395286001265049,-0.01598316617310047,0.034124523401260376,0.16761021316051483,0.985393226146698,-7.773066997528076,-0.9667710065841675,18.81331443786621,18,0,0,48,0.008185865357518196,0.221881702542305,0.14962078630924225,0.0001147125440184027,-0.004880215041339397,0.03254587575793266,-0.9994583129882812
27197.766,-0.00825987383723259,0.013547471724450588,-0.01728779636323452,-0.028951484709978104,0.20331020653247833,0.995535135269165,-8.559536933898926,-2.660325765609741,20.05962371826172,18,0,0,48,0.008185865357518196,0.221881702542305,0.14962078630924225,0.0001147125440184027,-0.004880215041339397,0.03254587575793266,-0.9994583129882812
27199.744,-0.00825987383723259,0.013547471724450588,-0.01728779636323452,-0.054176006466150284,0.21615436673164368,1.0082199573516846,-9.578609466552734,-3.1004321575164795,-4.415924072265625,18,0,1,176,0.00819740816950798,0.22198055684566498,0.1492292433977127,0.0019407059298828244,-0.00338917737826705,0.03301161900162697,-0.9994474053382874
27201.723,-0.0089731989428401,0.014510393142700195,-0.004334052558988333,-0.02380262315273285,0.20559832453727722,1.0171159505844116,-10.175067901611328,-0.14905226230621338,-17.31154441833496,18,0,1,176,0.00819740816950798,0.22198055684566498,0.1492292433977127,0.0019407059298828244,-0.00338917737826705,0.03301161900162697,-0.9994474053382874
27203.704,-0.0089731989428401,0.014510393142700195,-0.004334052558988333,0.009835220873355865,0.1755068600177765,1.022254467010498,-10.466517448425293,2.4339938163757324,-2.0348353385925293,18,0,1,176,0.00819740816950798,0.22198055684566498,0.1492292433977127,0.0019407059298828244,-0.00338917737826705,0.03301161900162697,-0.9994474053382874
27205.797,-0.0089731989428401,0.014510393142700195,-0.004334052558988333,0.01535798329859972,0.13400708138942719,1.025733232498169,-11.73300552368164,1.1284668445587158,17.003564834594727,18,0,1,176,0.008152474649250507,0.22264988720417023,0.14905795454978943,0.002420850796625018,-0.004458599723875523,0.033076025545597076,-0.9994399547576904
27207.661,-0.00982959195971489,0.015812065452337265,0.008904877118766308,0.01808646135032177,0.08123012632131577,1.0324463844299316,-13.436978340148926,-0.7635045051574707,15.873401641845703,18,0,1,176,0.008152474649250507,0.22264988720417023,0.14905795454978943,0.002420850796625018,-0.004458599723875523,0.033076025545597076,-0.9994399547576904
27209.646,-0.00982959195971489,0.015812065452337265,0.008904877118766308,0.03218359872698784,0.02365799807012081,1.0404906272888184,-14.69149398803711,-0.2884744107723236,3.5893137454986572,18,0,0,48,0.008877466432750225,0.2223903089761734,0.1489906758069992,0.0034123484510928392,-0.0050356425344944,0.033707551658153534,-0.999413251876831
27211.635,-0.009871131740510464,0.015924708917737007,0.02213818021118641,0.03906175494194031,-0.012156644836068153,1.0447109937667847,-15.542439460754395,-2.0838069915771484,-1.9234833717346191,18,0,0,48,0.008877466432750225,0.2223903089761734,0.1489906758069992,0.0034123484510928392,-0.0050356425344944,0.033707551658153534,-0.999413251876831
27213.604,-0.009871131740510464,0.015924708917737007,0.02213818021118641,0.026980549097061157,-0.008904640562832355,1.0447313785552979,-16.17091178894043,-6.696320056915283,0.2612902820110321,18,0,0,48,0.008877466432750225,0.2223903089761734,0.1489906758069992,0.0034123484510928392,-0.0050356425344944,0.033707551658153534,-0.999413251876831
27215.722,-0.009871131740510464,0.015924708917737007,0.02213818021118641,0.011357271112501621,0.013318605720996857,1.0452684164047241,-16.321760177612305,-4.748531818389893,1.8231303691864014,18,0,0,48,0.008926555514335632,0.22257760167121887,0.1491965502500534,0.0038407014217227697,-0.00480645289644599,0.03265784680843353,-0.9994476437568665
27217.594,-0.009871131740510464,0.015924708917737007,0.02213818021118641,0.00603914400562644,0.036453358829021454,1.04562509059906,-17.030454635620117,3.320014715194702,0.38183310627937317,18,0,0,48,0.008926555514335632,0.22257760167121887,0.1491965502500534,0.0038407014217227697,-0.00480645289644599,0.03265784680843353,-0.9994476437568665
27219.546,-0.010630344040691853,0.01734854094684124,0.040022846311330795,0.008864200673997402,0.08675103634595871,1.0408854484558105,-19.281702041625977,4.727901935577393,-2.3240838050842285,18,0,0,48,0.008926555514335632,0.22257760167121887,0.1491965502500534,0.0038407014217227697,-0.00480645289644599,0.03265784680843353,-0.9994476437568665
27221.527,-0.010630344040691853,0.01734854094684124,0.040022846311330795,0.01220882497727871,0.18068239092826843,1.0342786312103271,-20.892791748046875,-0.12612992525100708,-2.9875526428222656,18,0,0,48,0.008892293088138103,0.22276374697685242,0.14922013878822327,0.004267002455890179,-0.00460057845339179,0.032713234424591064,-0.9994450807571411
27223.514,-0.010661615058779716,0.017472421750426292,0.05330780893564224,0.0046226163394749165,0.2679777443408966,1.0435833930969238,-19.627960205078125,-0.8509487509727478,4.081554889678955,18,0,0,48,0.008892293088138103,0.22276374697685242,0.14922013878822327,0.004267002455890179,-0.00460057845339179,0.032713234424591064,-0.9994450807571411
27225.627,-0.010661615058779716,0.017472421750426292,0.05330780893564224,-0.014092009514570236,0.283527672290802,1.068260669708252,-15.96604061126709,0.3836413621902466,19.31084632873535,18,0,0,48,0.008892293088138103,0.22276374697685242,0.14922013878822327,0.004267002455890179,-0.00460057845339179,0.032713234424591064,-0.9994450807571411
27227.488,-0.010661615058779716,0.017472421750426292,0.05330780893564224,0.04043223336338997,0.2771628499031067,1.0742061138153076,-10.94426441192627,-0.014686559326946735,38.96057891845703,15,0,0,48,0.00900544784963131,0.22291439771652222,0.14924979209899902,0.004839218687266111,-0.004699417855590582,0.03343914449214935,-0.9994180202484131
27229.451,-0.010400712490081787,0.017955096438527107,-0.042309727519750595,0.14963263273239136,0.2793446183204651,1.0656431913375854,-5.302158832550049,3.819993734359741,61.03200149536133,15,0,0,48,0.00900544784963131,0.22291439771652222,0.14924979209899902,0.004839218687266111,-0.004699417855590582,0.03343914449214935,-0.9994180202484131
27231.441,-0.010400712490081787,0.017955096438527107,-0.042309727519750595,0.1312250792980194,0.16782636940479279,1.0323173999786377,0.9049961566925049,5.162082195281982,58.956703186035156,15,0,0,48,0.00900544784963131,0.22291439771652222,0.14924979209899902,0.004839218687266111,-0.004699417855590582,0.03343914449214935,-0.9994180202484131
27233.421,-0.010400712490081787,0.017955096438527107,-0.042309727519750595,0.020135611295700073,-0.17138592898845673,0.9791615605354309,11.432160377502441,-0.47359851002693176,27.872159957885742,15,0,0,48,0.008192099630832672,0.22318266332149506,0.14887630939483643,0.005315729416906834,-0.0036986665800213814,0.03238768130540848,-0.9994544982910156
27235.511,-0.010472513735294342,0.018087686970829964,-0.03112628310918808,0.01724710315465927,-0.6448448300361633,0.9696348905563354,23.680702209472656,0.6554341316223145,25.656871795654297,15,0,0,48,0.008192099630832672,0.22318266332149506,0.14887630939483643,0.005315729416906834,-0.0036986665800213814,0.03238768130540848,-0.9994544982910156
27237.39,-0.011227529495954514,0.020043769851326942,-0.027218736708164215,0.11112509667873383,-1.0406841039657593,0.9985163807868958,25.58310890197754,3.7999820709228516,48.26075744628906,15,0,1,176,0.008841377682983875,0.22318565845489502,0.1490906924009323,0.004806749522686005,-0.0057579209096729755,0.03365403041243553,-0.9994054436683655
27239.354,-0.011227529495954514,0.020043769851326942,-0.027218736708164215,0.117801234126091,-1.3092747926712036,1.0683873891830444,13.670825958251953,-4.729928970336914,24.3188419342041,15,0,1,176,0.008841377682983875,0.22318565845489502,0.1490906924009323,0.004806749522686005,-0.0057579209096729755,0.03365403041243553,-0.9994054436683655
27241.336,-0.011270334012806416,0.015062250196933746,-0.014183487743139267,0.03317170590162277,-1.6034610271453857,1.2919145822525024,-4.4890360832214355,-11.314020156860352,-47.12506103515625,15,0,1,176,0.008841377682983875,0.22318565845489502,0.1490906924009323,0.004806749522686005,-0.0057579209096729755,0.03365403041243553,-0.9994054436683655
27243.316,-0.011270334012806416,0.015062250196933746,-0.014183487743139267,0.005124518647789955,-1.9061111211776733,1.5718340873718262,-23.080665588378906,-4.552739143371582,-106.42342376708984,15,0,1,176,0.008992565795779228,0.22334621846675873,0.14981743693351746,0.0032620804850012064,-0.005521708633750677,0.03359825536608696,-0.99941486120224
27245.416,-0.01128228846937418,0.01530549582093954,-0.002372835064306855,0.07983211427927017,-2.0238664150238037,1.8032677173614502,-38.782470703125,-1.980734944343567,-110.534912109375,15,0,1,176,0.008992565795779228,0.22334621846675873,0.14981743693351746,0.0032620804850012064,-0.005521708633750677,0.03359825536608696,-0.99941486120224
27247.302,-0.012054415419697762,0.017696049064397812,0.019065899774432182,0.11276841908693314,-1.8947726488113403,2.065730333328247,-47.80530548095703,-9.582535743713379,-60.224239349365234,15,0,-1,176,0.008992565795779228,0.22334621846675873,0.14981743693351746,0.0032620804850012064,-0.005521708633750677,0.03359825536608696,-0.99941486120224
27249.268,-0.012054415419697762,0.017696049064397812,0.019065899774432182,0.05819742754101753,-1.455973744392395,2.208115816116333,-47.85825729370117,-10.583910942077637,1.183661699295044,15,0,-1,176,0.008965479210019112,0.22279196977615356,0.1497051864862442,0.004938747268170118,-0.0041903783567249775,0.0317959226667881,-0.9994733929634094
27251.24,-0.011913907714188099,0.02487724833190441,0.0327945277094841,0.0676727220416069,-0.8717852234840393,2.1509435176849365,-29.929561614990234,3.7998909950256348,32.385963439941406,15,0,-1,176,0.008965479210019112,0.22279196977615356,0.1497051864862442,0.004938747268170118,-0.0041903783567249775,0.0317959226667881,-0.9994733929634094
27253.222,-0.011913907714188099,0.02487724833190441,0.0327945277094841,0.15599171817302704,-0.5768492817878723,1.9020476341247559,13.4489107131958,11.769722938537598,68.66067504882812,15,0,-1,176,0.008965479210019112,0.22279196977615356,0.1497051864862442,0.004938747268170118,-0.0041903783567249775,0.0317959226667881,-0.9994733929634094
27255.329,-0.011913907714188099,0.02487724833190441,0.0327945277094841,0.2231953889131546,-0.7988446950912476,1.716757893562317,71.88725280761719,4.06664514541626,113.24321746826172,15,0,-1,176,0.007718217559158802,0.22156217694282532,0.14978572726249695,0.005288061685860157,-0.0028437853325158358,0.029788579791784286,-0.9995381832122803
27257.195,-0.013786454685032368,0.028931038454174995,0.14259649813175201,0.1187848374247551,-1.4465266466140747,1.668363094329834,127.60360717773438,-0.2909884750843048,106.6999282836914,15,15,1,176,0.007718217559158802,0.22156217694282532,0.14978572726249695,0.005288061685860157,-0.0028437853325158358,0.029788579791784286,-0.9995381832122803
27259.173,-0.01553030963987112,-0.005069270730018616,0.16419890522956848,-0.22302162647247314,-2.2754013538360596,1.3538894653320312,180.00762939453125,3.825491189956665,76.20794677734375,15,15,1,176,0.007718217559158802,0.22156217694282532,0.14978572726249695,0.005288061685860157,-0.0028437853325158358,0.029788579791784286,-0.9995381832122803
27261.152,-0.01553030963987112,-0.005069270730018616,0.16419890522956848,-0.490719199180603,-2.519613742828369,0.8994936943054199,199.01271057128906,-1.9060401916503906,8.698420524597168,15,15,1,176,0.008404659107327461,0.21978004276752472,0.15110455453395844,0.0020564591977745295,-0.007171838078647852,0.03014412894845009,-0.9995177984237671
27263.126,-0.015535097569227219,-0.00474046915769577,0.1765890121459961,-0.3510833978652954,-1.5936646461486816,0.5810195207595825,157.0345458984375,-12.599660873413086,-163.07760620117188,15,15,1,176,0.008404659107327461,0.21978004276752472,0.15110455453395844,0.0020564591977745295,-0.007171838078647852,0.03014412894845009,-0.9995177984237671
27265.234,-0.015535097569227219,-0.00474046915769577,0.1765890121459961,-0.05741153657436371,0.011126558296382427,0.42973530292510986,86.68854522705078,-7.985569000244141,-276.8607177734375,15,15,1,176,0.008564837276935577,0.21841610968112946,0.1515781581401825,-0.007392009720206261,-0.004099479876458645,0.028104057535529137,-0.999569296836853
27267.094,-0.016174325719475746,-0.0010593036422505975,0.2008710354566574,-0.006116847507655621,1.2810373306274414,0.474081426858902,31.039331436157227,3.4063260555267334,-141.318115234375,15,7,-14,176,0.008564837276935577,0.21841610968112946,0.1515781581401825,-0.007392009720206261,-0.004099479876458645,0.028104057535529137,-0.999569296836853
27269.075,-0.007891600020229816,-0.012351357378065586,0.20232272148132324,-0.03434751555323601,1.7804100513458252,0.6733379364013672,-20.15739631652832,7.504913330078125,77.47003936767578,15,7,-14,176,0.008564837276935577,0.21841610968112946,0.1515781581401825,-0.007392009720206261,-0.004099479876458645,0.028104057535529137,-0.999569296836853
27271.048,-0.007891600020229816,-0.012351357378065586,0.20232272148132324,0.10195345431566238,1.7716996669769287,0.9910182952880859,-83.98057556152344,0.4817825257778168,147.42758178710938,24,7,-14,176,0.008592303842306137,0.21652233600616455,0.15253405272960663,-0.008985089138150215,-0.0028625375125557184,0.028500886633992195,-0.9995493292808533
27273.034,-0.007141527719795704,-0.014597083441913128,0.11811516433954239,0.04004242643713951,1.754725456237793,1.5152944326400757,-150.4653778076172,-7.187917709350586,103.80806732177734,24,7,-14,176,0.008592303842306137,0.21652233600616455,0.15253405272960663,-0.008985089138150215,-0.0028625375125557184,0.028500886633992195,-0.9995493292808533
27275.143,-0.007141527719795704,-0.014597083441913128,0.11811516433954239,-0.35247859358787537,2.2187888622283936,2.155122995376587,-202.12428283691406,-7.377686023712158,-9.673937797546387,24,7,-14,176,0.008592303842306137,0.21652233600616455,0.15253405272960663,-0.008985089138150215,-0.0028625375125557184,0.028500886633992195,-0.9995493292808533
27276.992,-0.007141527719795704,-0.014597083441913128,0.11811516433954239,-0.5083484649658203,3.2723188400268555,2.491550922393799,-218.42672729492188,-9.723731994628906,-193.6464385986328,24,10,14,176,0.008681191131472588,0.21444177627563477,0.15358136594295502,-0.007283458951860666,-0.007985001429915428,0.025932716205716133,-0.9996052980422974
27278.973,-0.015573021024465561,0.009869377128779888,0.1411415934562683,-0.20290179550647736,4.189763069152832,2.378431797027588,-165.72621154785156,-14.069961547851562,-236.32220458984375,24,10,14,176,0.008681191131472588,0.21444177627563477,0.15358136594295502,-0.007283458951860666,-0.007985001429915428,0.025932716205716133,-0.9996052980422974
27280.959,-0.015573021024465561,0.009869377128779888,0.1411415934562683,0.0745210349559784,3.8892147541046143,2.119945764541626,-48.21622848510742,-11.65467357635498,42.191463470458984,24,10,14,176,0.008681191131472588,0.21444177627563477,0.15358136594295502,-0.007283458951860666,-0.007985001429915428,0.025932716205716133,-0.9996052980422974
27282.934,-0.015573021024465561,0.009869377128779888,0.1411415934562683,0.035434674471616745,2.139981985092163,1.9749908447265625,86.44964599609375,4.915901184082031,360.74169921875,24,10,14,176,0.008048666641116142,0.21438978612422943,0.15459726750850677,0.00820878241211176,-0.0059137349016964436,0.027741026133298874,-0.9995640516281128
27285.033,-0.01561388187110424,0.00935294572263956,0.15154166519641876,-0.11702245473861694,-0.24457405507564545,1.845367431640625,186.67803955078125,10.142598152160645,334.81341552734375,24,10,14,176,0.008048666641116142,0.21438978612422943,0.15459726750850677,0.00820878241211176,-0.0059137349016964436,0.027741026133298874,-0.9995640516281128
27286.897,-0.017785247415304184,0.010577361099421978,0.27064430713653564,-0.452503502368927,-1.931246280670166,1.4694792032241821,224.75927734375,-3.9391849040985107,-3.183119535446167,24,-6,-8,176,0.007100897375494242,0.21463164687156677,0.15553371608257294,0.010425396263599396,-0.0013840394094586372,0.04604905843734741,-0.9988839030265808
27288.886,-0.014708458445966244,-0.01989944651722908,0.3087402284145355,-0.779731810092926,-1.86648690700531,0.9406916499137878,219.2999725341797,-11.702132225036621,-382.8208923339844,24,-6,-8,176,0.007100897375494242,0.21463164687156677,0.15553371608257294,0.010425396263599396,-0.0013840394094586372,0.04604905843734741,-0.9988839030265808
27290.858,-0.014708458445966244,-0.01989944651722908,0.3087402284145355,-0.7302402257919312,-0.1674598902463913,0.5377157330513,186.71376037597656,9.119359016418457,-580.8798217773438,24,-6,-8,176,0.007100897375494242,0.21463164687156677,0.15553371608257294,0.010425396263599396,-0.0013840394094586372,0.04604905843734741,-0.9988839030265808
27292.839,-0.014708458445966244,-0.01989944651722908,0.3087402284145355,-0.22655165195465088,1.9847931861877441,0.3968456983566284,163.9394073486328,39.654632568359375,-460.1974792480469,24,-6,-8,176,0.0076525150798261166,0.21419736742973328,0.15874646604061127,-0.024243105202913284,-0.00576629675924778,0.04717810079455376,-0.9985756278038025
27294.948,-0.014759032987058163,-0.02009682171046734,0.3190377950668335,0.3010432720184326,3.399221897125244,0.609982967376709,176.6521759033203,33.89473342895508,-35.24679183959961,24,-6,-8,176,0.0076525150798261166,0.21419736742973328,0.15874646604061127,-0.024243105202913284,-0.00576629675924778,0.04717810079455376,-0.9985756278038025
27296.815,-0.015291738323867321,-0.01652498170733452,0.3151724338531494,0.312316358089447,3.4850316047668457,1.2956998348236084,182.05653381347656,0.8506566286087036,369.6055603027344,24,15,12,176,0.0076525150798261166,0.21419736742973328,0.15874646604061127,-0.024243105202913284,-0.00576629675924778,0.04717810079455376,-0.9985756278038025
27298.781,-0.015291738323867321,-0.01652498170733452,0.3151724338531494,0.007190155331045389,2.3631644248962402,2.1793527603149414,143.48873901367188,-18.10175323486328,419.067626953125,24,15,12,176,0.008117767050862312,0.2168085277080536,0.1589999943971634,-0.021496864035725594,-0.004365137778222561,0.040486905723810196,-0.9989392757415771
27300.764,-0.024687878787517548,-0.055106453597545624,0.3508729040622711,-0.26260408759117126,0.7351604700088501,2.8216590881347656,76.00125122070312,-17.991405487060547,266.4273376464844,24,15,12,176,0.008117767050862312,0.2168085277080536,0.1589999943971634,-0.021496864035725594,-0.004365137778222561,0.040486905723810196,-0.9989392757415771
27302.753,-0.024687878787517548,-0.055106453597545624,0.3508729040622711,-0.4893466830253601,-0.5951400995254517,3.147639036178589,18.51808738708496,-13.362719535827637,173.19842529296875,24,15,12,176,0.008117767050862312,0.2168085277080536,0.1589999943971634,-0.021496864035725594,-0.004365137778222561,0.040486905723810196,-0.9989392757415771
27304.851,-0.024687878787517548,-0.055106453597545624,0.3508729040622711,-0.5659326910972595,-1.1934282779693604,3.2392077445983887,-5.1874613761901855,-10.745570182800293,74.46874237060547,24,15,12,176,0.008064890280365944,0.21809199452400208,0.16098308563232422,-0.016919782385230064,-0.0068468861281871796,0.028529653325676918,-0.9994262456893921
27306.705,-0.02750401571393013,-0.061785850673913956,0.49408939480781555,-0.32593274116516113,-0.9257364273071289,3.141993999481201,7.04235315322876,-2.0931501388549805,-92.07633972167969,24,-4,-5,176,0.008064890280365944,0.21809199452400208,0.16098308563232422,-0.016919782385230064,-0.0068468861281871796,0.028529653325676918,-0.9994262456893921
27308.686,-0.024686405435204506,-0.056481894105672836,0.4955892264842987,0.18802815675735474,-0.05574699863791466,2.648770809173584,38.22997283935547,-3.7374320030212402,-185.39527893066406,24,-4,-5,176,0.008062690496444702,0.21834860742092133,0.16442817449569702,-0.029774725437164307,-0.002980478573590517,0.01790904439985752,-0.9993917942047119
27310.667,-0.024615108966827393,-0.05558289960026741,0.5061730146408081,0.6799778938293457,0.2746250629425049,1.6260794401168823,87.87067413330078,-23.534151077270508,-20.966564178466797,24,-4,-5,176,0.008062690496444702,0.21834860742092133,0.16442817449569702,-0.029774725437164307,-0.002980478573590517,0.01790904439985752,-0.9993917942047119
27312.655,-0.024615108966827393,-0.05558289960026741,0.5061730146408081,0.6398811936378479,-0.9908472895622253,0.7893465161323547,154.70199584960938,-27.941896438598633,340.7296447753906,24,-4,-5,176,0.008062690496444702,0.21834860742092133,0.16442817449569702,-0.029774725437164307,-0.002980478573590517,0.01790904439985752,-0.9993917942047119
27314.756,-0.024615108966827393,-0.05558289960026741,0.5061730146408081,-0.1183130294084549,-3.176588535308838,0.5281287431716919,180.76170349121094,-13.223044395446777,486.428466796875,24,-4,-5,176,0.0073654563166201115,0.21888668835163116,0.16606633365154266,-0.024858348071575165,-0.002545928116887808,0.02122543193399906,-0.9994624257087708
27316.619,-0.02570863999426365,-0.06663857400417328,0.48638105392456055,-0.6160715222358704,-4.280869007110596,0.5774226784706116,137.04441833496094,-14.520484924316406,95.93961334228516,32,0,0,48,0.0073654563166201115,0.21888668835163116,0.16606633365154266,-0.024858348071575165,-0.002545928116887808,0.02122543193399906,-0.9994624257087708
27318.593,-0.02570863999426365,-0.06663857400417328,0.48638105392456055,-0.32752808928489685,-3.643393039703369,0.9927418231964111,71.04402160644531,-25.380353927612305,-450.0067443847656,32,0,0,48,0.0073654563166201115,0.21888668835163116,0.16606633365154266,-0.024858348071575165,-0.002545928116887808,0.02122543193399906,-0.9994624257087708
27320.571,-0.02570863999426365,-0.06663857400417328,0.48638105392456055,0.11970487982034683,-2.3784289360046387,1.6664652824401855,47.366065979003906,-25.101585388183594,-520.032470703125,32,0,0,48,0.007424719166010618,0.21931585669517517,0.16863268613815308,-0.034299418330192566,-0.003468319308012724,0.02563045173883438,-0.9990769028663635
27322.552,-0.025659270584583282,-0.06559108197689056,0.4966311752796173,0.0980907455086708,-1.3605613708496094,2.164663314819336,69.05154418945312,-26.666217803955078,-131.70175170898438,32,0,0,48,0.007424719166010618,0.21931585669517517,0.16863268613815308,-0.034299418330192566,-0.003468319308012724,0.02563045173883438,-0.9990769028663635
27324.651,-0.025659270584583282,-0.06559108197689056,0.4966311752796173,-0.1370876133441925,-0.624945342540741,2.1996312141418457,78.21150207519531,-32.17213821411133,194.60389709472656,32,0,0,48,0.007424719166010618,0.21931585669517517,0.16863268613815308,-0.034299418330192566,-0.003468319308012724,0.02563045173883438,-0.9990769028663635
27326.513,-0.025659270584583282,-0.06559108197689056,0.4966311752796173,-0.14390835165977478,-0.06726972758769989,1.845690131187439,38.16749954223633,-32.866851806640625,215.85623168945312,32,14,13,176,0.005995113402605057,0.2195446789264679,0.1710369884967804,-0.040943797677755356,0.0018751659663394094,0.024031739681959152,-0.9988706707954407
27328.503,-0.03923940286040306,-0.09290420264005661,0.5498724579811096,0.05591810867190361,0.18223045766353607,1.2810636758804321,-38.410396575927734,-26.669139862060547,131.60281372070312,32,14,13,176,0.005995113402605057,0.2195446789264679,0.1710369884967804,-0.040943797677755356,0.0018751659663394094,0.024031739681959152,-0.9988706707954407
27330.484,-0.03923940286040306,-0.09290420264005661,0.5498724579811096,0.1460658460855484,0.07260236144065857,0.7823132872581482,-113.69096374511719,-10.585935592651367,92.51416015625,32,14,13,176,0.006889380514621735,0.21762217581272125,0.17451784014701843,-0.036737434566020966,0.00027657358441501856,0.02252122201025486,-0.9990711808204651
27332.458,-0.03911028429865837,-0.09175059199333191,0.5606884956359863,-0.010262551717460155,0.0662350133061409,0.4751405417919159,-168.48599243164062,-7.188805103302002,13.903962135314941,32,14,13,176,0.006889380514621735,0.21762217581272125,0.17451784014701843,-0.036737434566020966,0.00027657358441501856,0.02252122201025486,-0.9990711808204651
27334.565,-0.03911028429865837,-0.09175059199333191,0.5606884956359863,0.00410359725356102,0.6034587025642395,0.2872738838195801,-192.1975555419922,-27.84394645690918,-126.55186462402344,32,14,13,176,0.006889380514621735,0.21762217581272125,0.17451784014701843,-0.036737434566020966,0.00027657358441501856,0.02252122201025486,-0.9990711808204651
27336.419,-0.040103696286678314,-0.099604032933712,0.561744749546051,0.3352516293525696,1.4095046520233154,0.1811380535364151,-188.1818389892578,-42.63348388671875,-172.1862335205078,32,-8,5,176,0.0067683132365345955,0.21706263720989227,0.17732341587543488,-0.028863120824098587,0.0025985536631196737,0.012595046311616898,-0.9995007514953613
27338.42,-0.04545679688453674,-0.05972400680184364,0.6131920218467712,0.4522710144519806,1.7396868467330933,0.22803211212158203,-176.19717407226562,-31.54730796813965,-22.033784866333008,32,-8,5,176,0.0067683132365345955,0.21706263720989227,0.17732341587543488,-0.028863120824098587,0.0025985536631196737,0.012595046311616898,-0.9995007514953613
27340.381,-0.04545679688453674,-0.05972400680184364,0.6131920218467712,0.18586644530296326,1.3601428270339966,0.4334118962287903,-175.65753173828125,-3.925063133239746,182.6106719970703,32,-8,5,176,0.0067683132365345955,0.21706263720989227,0.17732341587543488,-0.028863120824098587,0.0025985536631196737,0.012595046311616898,-0.9995007514953613
27342.36,-0.04545679688453674,-0.05972400680184364,0.6131920218467712,-0.13093703985214233,0.7334251403808594,0.9154435992240906,-183.46595764160156,7.526758670806885,176.0799102783203,32,-8,5,176,0.006695634685456753,0.21629159152507782,0.17958876490592957,-0.017324957996606827,0.00017761954222805798,0.015465396456420422,-0.9997303485870361
27344.466,-0.04525011405348778,-0.05933404713869095,0.6231021285057068,-0.291731059551239,0.7680070996284485,1.4671790599822998,-193.3543701171875,-17.370765686035156,-105.75580596923828,32,-8,5,176,0.006695634685456753,0.21629159152507782,0.17958876490592957,-0.017324957996606827,0.00017761954222805798,0.015465396456420422,-0.9997303485870361
27346.325,-0.045327216386795044,-0.0652947872877121,0.5802680253982544,-0.14783577620983124,1.6680958271026611,1.6561638116836548,-183.52874755859375,-42.460243225097656,-410.1312255859375,32,-1,-8,176,0.006695634685456753,0.21629159152507782,0.17958876490592957,-0.017324957996606827,0.00017761954222805798,0.015465396456420422,-0.9997303485870361
27348.303,-0.04299810901284218,-0.03866124525666237,0.6030194759368896,0.09191256016492844,2.293283700942993,1.5474705696105957,-120.36371612548828,-29.310379028320312,-331.3910827636719,32,-1,-8,176,0.006841521710157394,0.21659159660339355,0.18270733952522278,-0.008923276327550411,-0.0010769317159429193,0.026115790009498596,-0.9996185302734375
27350.285,-0.042752381414175034,-0.03875662758946419,0.6125630736351013,0.0395854227244854,1.6712064743041992,1.282098412513733,-18.99110221862793,5.353424549102783,113.36819458007812,32,-1,-8,176,0.006841521710157394,0.21659159660339355,0.18270733952522278,-0.008923276327550411,-0.0010769317159429193,0.026115790009498596,-0.9996185302734375
27352.266,-0.042752381414175034,-0.03875662758946419,0.6125630736351013,-0.11051889508962631,0.10721703618764877,1.0089892148971558,69.17464447021484,16.24751853942871,337.8722229003906,32,-1,-8,176,0.007020982448011637,0.21650518476963043,0.1858278512954712,-0.0034352492075413465,0.0050582559779286385,0.042378056794404984,-0.9990829825401306
27354.365,-0.04255811870098114,-0.03880833834409714,0.6221209764480591,-0.07596562057733536,-1.0888574123382568,0.7266496419906616,99.78134155273438,-5.483600616455078,117.97367858886719,32,-1,-8,176,0.007020982448011637,0.21650518476963043,0.1858278512954712,-0.0034352492075413465,0.0050582559779286385,0.042378056794404984,-0.9990829825401306
27356.233,-0.04536307975649834,-0.04131616652011871,0.6487279534339905,-0.07454343140125275,-1.2871917486190796,0.35533028841018677,85.2460708618164,-22.520776748657227,-206.24562072753906,32,20,-6,176,0.007020982448011637,0.21650518476963043,0.1858278512954712,-0.0034352492075413465,0.0050582559779286385,0.042378056794404984,-0.9990829825401306
27358.22,-0.04432740807533264,-0.06507202982902527,0.6561201810836792,-0.21106965839862823,-0.6607493758201599,0.07964613288640976,56.25434494018555,-20.95497703552246,-356.8722229003906,32,20,-6,176,0.007266549859195948,0.21678844094276428,0.1884710192680359,-0.011048267595469952,0.005142781417816877,0.04880094900727272,-0.9987342357635498
27360.211,-0.04409144073724747,-0.06485560536384583,0.6655724048614502,-0.2661503851413727,0.36286675930023193,0.08584143966436386,31.993051528930664,-7.457968711853027,-310.7701416015625,72,20,-6,176,0.007266549859195948,0.21678844094276428,0.1884710192680359,-0.011048267595469952,0.005142781417816877,0.04880094900727272,-0.9987342357635498
27362.17,-0.0429893396794796,-0.06252015382051468,0.5545192360877991,0.0019626030698418617,1.4149163961410522,0.4605177342891693,21.215829849243164,6.94556999206543,-111.30758666992188,72,20,-6,176,0.007266549859195948,0.21678844094276428,0.1884710192680359,-0.011048267595469952,0.005142781417816877,0.04880094900727272,-0.9987342357635498
27364.268,-0.0429893396794796,-0.06252015382051468,0.5545192360877991,0.2482401579618454,2.2018113136291504,0.996724009513855,1.3700755834579468,5.425399303436279,158.34254455566406,72,20,-6,176,0.0066243126057088375,0.21653005480766296,0.18986278772354126,-0.02409784309566021,0.006154708564281464,0.04267311096191406,-0.9987795352935791
27366.132,-0.04263298958539963,-0.061225615441799164,0.49970391392707825,0.222233384847641,2.210122585296631,1.6286331415176392,-37.07910919189453,-8.236092567443848,316.3502197265625,72,15,15,176,0.0066243126057088375,0.21653005480766296,0.18986278772354126,-0.02409784309566021,0.006154708564281464,0.04267311096191406,-0.9987795352935791
27368.123,-0.05008774995803833,-0.0680096372961998,0.4979866147041321,-0.022846365347504616,1.4100549221038818,2.2466464042663574,-85.68814849853516,-13.76780891418457,316.4592590332031,72,15,15,176,0.0066243126057088375,0.21653005480766296,0.18986278772354126,-0.02409784309566021,0.006154708564281464,0.04267311096191406,-0.9987795352935791
27370.099,-0.05008774995803833,-0.0680096372961998,0.4979866147041321,-0.1767606884241104,0.5231333374977112,2.577174186706543,-126.19728088378906,-12.0675630569458,221.66001892089844,72,15,15,176,0.006715818308293819,0.21818915009498596,0.1932152360677719,-0.00933545920997858,0.005339439958333969,0.03092997893691063,-0.9994637370109558
27372.08,-0.04983726516366005,-0.06754717230796814,0.5072055459022522,-0.13802377879619598,0.14424799382686615,2.5375239849090576,-142.40052795410156,-5.776950359344482,85.71285247802734,72,15,15,176,0.006715818308293819,0.21818915009498596,0.1932152360677719,-0.00933545920997858,0.005339439958333969,0.03092997893691063,-0.9994637370109558
27374.192,-0.04983726516366005,-0.06754717230796814,0.5072055459022522,0.08238483220338821,0.22651921212673187,2.142195463180542,-118.30118560791016,3.825322389602661,0.8388469219207764,72,15,15,176,0.006831382401287556,0.21913744509220123,0.19690899550914764,-0.004915036726742983,0.0046891686506569386,0.013619796372950077,-0.9998841881752014
27376.035,-0.04983726516366005,-0.06754717230796814,0.5072055459022522,0.28634968400001526,0.2882058322429657,1.41732656955719,-57.6534423828125,6.482112407684326,58.46842575073242,72,15,24,176,0.006831382401287556,0.21913744509220123,0.19690899550914764,-0.004915036726742983,0.0046891686506569386,0.013619796372950077,-0.9998841881752014
27378.018,-0.06717529892921448,-0.06853640824556351,0.6418245434761047,0.23915298283100128,-0.09575565159320831,0.588881254196167,11.801286697387695,-3.1881706714630127,193.56224060058594,72,15,24,176,0.006831382401287556,0.21913744509220123,0.19690899550914764,-0.004915036726742983,0.0046891686506569386,0.013619796372950077,-0.9998841881752014
27379.999,-0.06717529892921448,-0.06853640824556351,0.6418245434761047,-0.08138938993215561,-1.1038122177124023,0.04067518189549446,66.41889953613281,-12.623337745666504,196.0140380859375,72,15,24,176,0.006206312216818333,0.21961629390716553,0.199504554271698,-0.0033936849795281887,0.005272444803267717,0.011822127737104893,-0.9999104738235474
27381.979,-0.0668477788567543,-0.06801547855138779,0.6516428589820862,-0.33711540699005127,-2.197718381881714,-0.15352220833301544,85.4758071899414,-10.614640235900879,-7.142609596252441,72,15,24,176,0.006206312216818333,0.21961629390716553,0.199504554271698,-0.0033936849795281887,0.005272444803267717,0.011822127737104893,-0.9999104738235474
27384.078,-0.0668477788567543,-0.06801547855138779,0.6516428589820862,-0.28500059247016907,-2.6758029460906982,-0.05836983770132065,73.36934661865234,-4.390087604522705,-282.4748840332031,72,15,24,176,0.006206312216818333,0.21961629390716553,0.199504554271698,-0.0033936849795281887,0.005272444803267717,0.011822127737104893,-0.9999104738235474
27385.949,-0.0668477788567543,-0.06801547855138779,0.6516428589820862,-0.03862379863858223,-2.286682367324829,0.2745409309864044,55.938411712646484,-0.574272096157074,-399.9151306152344,72,-10,1,176,0.005259930621832609,0.21992021799087524,0.20096097886562347,-0.008904779329895973,0.0074643101543188095,0.022215424105525017,-0.9996857643127441
27387.936,-0.06656201183795929,-0.06610016524791718,0.6610354781150818,0.11648868769407272,-1.4289116859436035,0.7038781642913818,49.9638671875,5.450347900390625,-242.3148193359375,72,-10,1,176,0.005259930621832609,0.21992021799087524,0.20096097886562347,-0.008904779329895973,0.0074643101543188095,0.022215424105525017,-0.9996857643127441
27389.903,-0.06514830887317657,-0.06355011463165283,0.5734300017356873,0.14774493873119354,-0.6776100397109985,1.220375657081604,55.92878341674805,4.764796733856201,4.707370281219482,72,-10,1,176,0.005259930621832609,0.21992021799087524,0.20096097886562347,-0.008904779329895973,0.0074643101543188095,0.022215424105525017,-0.9996857643127441
27391.883,-0.06514830887317657,-0.06355011463165283,0.5734300017356873,0.06557086855173111,-0.3250986635684967,1.7095474004745483,59.726219177246094,-8.802738189697266,96.43378448486328,72,-10,1,176,0.0061449045315384865,0.2194458246231079,0.20497669279575348,-0.017222853377461433,0.0076833064667880535,0.03246099874377251,-0.9992951154708862
27393.983,-0.06483839452266693,-0.06306890398263931,0.583534300327301,-0.06046096235513687,-0.4126468598842621,1.9732720851898193,50.460548400878906,-14.20010757446289,71.01323699951172,72,-10,1,176,0.0061449045315384865,0.2194458246231079,0.20497669279575348,-0.017222853377461433,0.0076833064667880535,0.03246099874377251,-0.9992951154708862
27395.855,-0.06483839452266693,-0.06306890398263931,0.583534300327301,-0.19458144903182983,-0.94382244348526,1.958884358406067,26.119552612304688,1.5717638731002808,93.68597412109375,72,39,23,176,0.0061449045315384865,0.2194458246231079,0.20497669279575348,-0.017222853377461433,0.0076833064667880535,0.03246099874377251,-0.9992951154708862
27397.826,-0.06483839452266693,-0.06306890398263931,0.583534300327301,-0.27972814440727234,-1.5790491104125977,1.5906479358673096,-6.858069896697998,12.609502792358398,128.0299835205078,72,39,23,176,0.00596270989626646,0.2190001755952835,0.20820240676403046,-0.010630093514919281,0.004217955749481916,0.038940176367759705,-0.9991761445999146
27399.815,-0.08012314140796661,-0.09126565605401993,0.6479487419128418,-0.24472790956497192,-1.7716554403305054,1.024640679359436,-36.05976867675781,-1.269095540046692,56.4534797668457,72,39,23,176,0.00596270989626646,0.2190001755952835,0.20820240676403046,-0.010630093514919281,0.004217955749481916,0.038940176367759705,-0.9991761445999146
27401.803,-0.08012314140796661,-0.09126565605401993,0.6479487419128418,-0.05351273715496063,-1.2158324718475342,0.4650428295135498,-56.23335266113281,-16.696781158447266,-50.50239944458008,72,39,23,176,0.005706104449927807,0.2178071141242981,0.21129922568798065,-0.015875602141022682,0.006596783641725779,0.026728689670562744,-0.9994949102401733
27403.897,-0.07971160113811493,-0.09053237736225128,0.6582716703414917,0.0938887968659401,-0.22817111015319824,-0.0052363574504852295,-64.31659698486328,-14.149112701416016,-65.63847351074219,87,39,23,176,0.005706104449927807,0.2178071141242981,0.21129922568798065,-0.015875602141022682,0.006596783641725779,0.026728689670562744,-0.9994949102401733
27405.75,-0.07700389623641968,-0.08702163398265839,0.5357996821403503,0.06571195274591446,0.6011765599250793,-0.3763405978679657,-69.13592529296875,-13.971708297729492,12.214332580566406,87,-4,-1,176,0.005706104449927807,0.2178071141242981,0.21129922568798065,-0.015875602141022682,0.006596783641725779,0.026728689670562744,-0.9994949102401733
27407.731,-0.07622498273849487,-0.07531264424324036,0.5389807820320129,0.020984500646591187,1.0402575731277466,-0.5475495457649231,-81.05057525634766,-13.20167064666748,117.20622253417969,87,-4,-1,176,0.005696312990039587,0.21732650697231293,0.21328026056289673,-0.009201020933687687,0.00766381761059165,0.012934441678225994,-0.9998446702957153
27409.712,-0.07506508380174637,-0.07573402673006058,0.4912286400794983,0.05697579309344292,1.1832356452941895,-0.4355314075946808,-102.84063720703125,-1.5098670721054077,198.41835021972656,87,-4,-1,176,0.005696312990039587,0.21732650697231293,0.21328026056289673,-0.009201020933687687,0.00766381761059165,0.012934441678225994,-0.9998446702957153
27411.693,-0.07506508380174637,-0.07573402673006058,0.4912286400794983,0.12357901781797409,1.0005407333374023,-0.09610077738761902,-124.57929992675781,9.694160461425781,206.28639221191406,87,-4,-1,176,0.005696312990039587,0.21732650697231293,0.21328026056289673,-0.009201020933687687,0.00766381761059165,0.012934441678225994,-0.9998446702957153
27413.801,-0.07506508380174637,-0.07573402673006058,0.4912286400794983,-0.017318295314908028,0.5854933261871338,0.4344007968902588,-139.41075134277344,9.193211555480957,120.92382049560547,87,-4,-1,176,0.005559801124036312,0.2166707068681717,0.21506981551647186,0.00042338520870544016,0.007127678953111172,0.006677224766463041,-0.9999521970748901
27415.659,-0.07506508380174637,-0.07573402673006058,0.4912286400794983,-0.3086152672767639,0.3416881859302521,1.0460280179977417,-154.0310516357422,-4.678873062133789,-53.12501907348633,87,47,-1,176,0.005559801124036312,0.2166707068681717,0.21506981551647186,0.00042338520870544016,0.007127678953111172,0.006677224766463041,-0.9999521970748901
27417.641,-0.07362952828407288,-0.08873829990625381,0.49509644508361816,-0.3746792674064636,0.6570781469345093,1.465351939201355,-165.37173461914062,-16.5938777923584,-251.0613555908203,87,47,-1,176,0.005559801124036312,0.2166707068681717,0.21506981551647186,0.00042338520870544016,0.007127678953111172,0.006677224766463041,-0.9999521970748901
27419.615,-0.07213371247053146,-0.09068646281957626,0.4131338894367218,-0.2167428433895111,1.3916741609573364,1.5092146396636963,-157.5091552734375,-16.345073699951172,-319.1639709472656,87,47,-1,176,0.005355633795261383,0.21696916222572327,0.21782198548316956,0.006293898914009333,0.002658871002495289,0.007727362215518951,-0.9999467730522156
27421.597,-0.07173886895179749,-0.09001500904560089,0.42379066348075867,-0.18464960157871246,1.9745357036590576,1.20730459690094,-127.36468505859375,-8.126287460327148,-162.03466796875,87,47,-1,176,0.005355633795261383,0.21696916222572327,0.21782198548316956,0.006293898914009333,0.002658871002495289,0.007727362215518951,-0.9999467730522156
27423.696,-0.07173886895179749,-0.09001500904560089,0.42379066348075867,-0.18374475836753845,1.9339195489883423,0.7796633243560791,-85.45301818847656,-0.6574347019195557,54.71937942504883,87,47,-1,176,0.005355633795261383,0.21696916222572327,0.21782198548316956,0.006293898914009333,0.002658871002495289,0.007727362215518951,-0.9999467730522156
27425.558,-0.07173886895179749,-0.09001500904560089,0.42379066348075867,-0.025549879297614098,1.3680009841918945,0.47070813179016113,-45.73964309692383,-8.499265670776367,88.46922302246094,87,18,-3,176,0.005352226551622152,0.2156432718038559,0.2210831344127655,0.00887815747410059,0.005505914334207773,0.028595836833119392,-0.9995365142822266
27427.54,-0.07145211845636368,-0.09166411310434341,0.4361119568347931,0.10287600755691528,0.7193917632102966,0.35693398118019104,-15.733147621154785,-20.40005111694336,-58.73201370239258,87,18,-3,176,0.005352226551622152,0.2156432718038559,0.2210831344127655,0.00887815747410059,0.005505914334207773,0.028595836833119392,-0.9995365142822266
27429.521,-0.07145211845636368,-0.09166411310434341,0.4361119568347931,0.022546986117959023,0.09404660761356354,0.4872724115848541,9.082038879394531,-15.409163475036621,-189.59364318847656,87,18,-3,176,0.005090403836220503,0.21606199443340302,0.22233785688877106,0.016515910625457764,0.006697029806673527,0.04774314537644386,-0.9987006187438965
27431.504,-0.07112850248813629,-0.09100117534399033,0.4471852481365204,-0.1500760018825531,-0.5168575644493103,0.7900806069374084,38.28090286254883,-3.69559645652771,-175.66355895996094,87,18,-3,176,0.005090403836220503,0.21606199443340302,0.22233785688877106,0.016515910625457764,0.006697029806673527,0.04774314537644386,-0.9987006187438965
27433.6,-0.07112850248813629,-0.09100117534399033,0.4471852481365204,-0.27404865622520447,-0.7993663549423218,1.0639691352844238,61.65174865722656,1.0792771577835083,-99.99273681640625,87,18,-3,176,0.005090403836220503,0.21606199443340302,0.22233785688877106,0.016515910625457764,0.006697029806673527,0.04774314537644386,-0.9987006187438965
27435.462,-0.07112850248813629,-0.09100117534399033,0.4471852481365204,-0.26444002985954285,-0.3133182227611542,0.9891993999481201,57.932926177978516,2.499547004699707,-87.72636413574219,87,8,1,176,0.004960524849593639,0.21714015305042267,0.22514359652996063,0.009499174542725086,0.008289050310850143,0.05539057031273842,-0.9983851313591003
27437.444,-0.07160622626543045,-0.0949239507317543,0.434558629989624,-0.07510095834732056,0.7219263911247253,0.7517459988594055,32.13518524169922,6.6966233253479,-84.22706604003906,87,8,1,176,0.004960524849593639,0.21714015305042267,0.22514359652996063,0.009499174542725086,0.008289050310850143,0.05539057031273842,-0.9983851313591003
27439.435,-0.07160622626543045,-0.0949239507317543,0.434558629989624,0.17414268851280212,1.691339373588562,0.5970058441162109,4.1197333335876465,4.3372931480407715,30.99271011352539,87,8,1,176,0.004960524849593639,0.21714015305042267,0.22514359652996063,0.009499174542725086,0.008289050310850143,0.05539057031273842,-0.9983851313591003
27441.407,-0.07160622626543045,-0.0949239507317543,0.434558629989624,0.3040526211261749,2.2144641876220703,0.5066710710525513,-18.471704483032227,-3.813783645629883,200.53887939453125,87,8,1,176,0.0035991740878671408,0.21797145903110504,0.22659951448440552,0.004623643588274717,0.01262732408940792,0.04061013087630272,-0.9990846514701843
27443.514,-0.07140052318572998,-0.09395887702703476,0.4458441734313965,0.20901654660701752,2.0959858894348145,0.6222305297851562,-32.56268310546875,-1.640913963317871,283.6174621582031,87,8,1,176,0.0035991740878671408,0.21797145903110504,0.22659951448440552,0.004623643588274717,0.01262732408940792,0.04061013087630272,-0.9990846514701843
27445.373,-0.07140052318572998,-0.09395887702703476,0.4458441734313965,0.03672802075743675,1.3805999755859375,0.9167493581771851,-36.55730438232422,8.693807601928711,278.81231689453125,87,13,-2,176,0.0035991740878671408,0.21797145903110504,0.22659951448440552,0.004623643588274717,0.01262732408940792,0.04061013087630272,-0.9990846514701843
27447.353,-0.0699569508433342,-0.0967957079410553,0.44569075107574463,-0.037220556288957596,0.4112367331981659,1.2051516771316528,-32.745906829833984,14.353120803833008,248.261474609375,87,13,-2,176,0.0036400838289409876,0.2185264676809311,0.22762759029865265,0.012422981671988964,0.008720120415091515,0.019880034029483795,-0.999687135219574
27449.33,-0.06757470965385437,-0.08886326849460602,0.2998516261577606,-0.12506550550460815,-0.39221808314323425,1.4028394222259521,-29.393863677978516,12.426360130310059,173.69137573242188,107,13,-2,176,0.0036400838289409876,0.2185264676809311,0.22762759029865265,0.012422981671988964,0.008720120415091515,0.019880034029483795,-0.999687135219574
27451.311,-0.06757470965385437,-0.08886326849460602,0.2998516261577606,-0.23693548142910004,-0.6766464710235596,1.4943335056304932,-25.734498977661133,8.916543960571289,12.863792419433594,107,13,-2,176,0.0036975531838834286,0.21976466476917267,0.2298307716846466,0.013261446729302406,0.00767730874940753,0.006110412534326315,-0.9998639225959778
27453.419,-0.06731413304805756,-0.08760842680931091,0.31010669469833374,-0.20016583800315857,-0.43365412950515747,1.4925397634506226,-15.986785888671875,6.846974849700928,-148.98675537109375,107,13,-2,176,0.0036975531838834286,0.21976466476917267,0.2298307716846466,0.013261446729302406,0.00767730874940753,0.006110412534326315,-0.9998639225959778
27455.272,-0.06731413304805756,-0.08760842680931091,0.31010669469833374,-0.001779139623977244,0.04615944251418114,1.4368330240249634,-1.7879788875579834,2.767812490463257,-183.25082397460938,107,1,4,176,0.0036975531838834286,0.21976466476917267,0.2298307716846466,0.013261446729302406,0.00767730874940753,0.006110412534326315,-0.9998639225959778
27457.263,-0.06791475415229797,-0.08547960966825485,0.31012237071990967,0.20173273980617523,0.48118388652801514,1.2953567504882812,7.555428504943848,-0.5222432017326355,-101.60611724853516,107,1,4,176,0.0035596690140664577,0.22133204340934753,0.23248738050460815,0.011037549003958702,0.007002123165875673,0.011239442974328995,-0.999851405620575
27459.238,-0.07149869948625565,-0.07960506528615952,0.36248791217803955,0.2307431995868683,0.6205307245254517,0.9868971705436707,8.795601844787598,4.460054874420166,-14.725289344787598,107,1,4,176,0.0035596690140664577,0.22133204340934753,0.23248738050460815,0.011037549003958702,0.007002123165875673,0.011239442974328995,-0.999851405620575
27461.219,-0.07149869948625565,-0.07960506528615952,0.36248791217803955,0.04806626960635185,0.15738818049430847,0.6607596278190613,12.45605754852295,14.890620231628418,26.538223266601562,107,1,4,176,0.0035596690140664577,0.22133204340934753,0.23248738050460815,0.011037549003958702,0.007002123165875673,0.011239442974328995,-0.999851405620575
27463.322,-0.07149869948625565,-0.07960506528615952,0.36248791217803955,-0.1302458792924881,-0.8120673894882202,0.5081039071083069,18.26555824279785,22.509479522705078,11.405524253845215,107,1,4,176,0.0033176569268107414,0.22185559570789337,0.23556330800056458,0.011749044992029667,0.006223668809980154,0.033118605613708496,-0.9993630051612854
27465.177,-0.07126258313655853,-0.07812681794166565,0.3738342225551605,-0.05123261734843254,-1.7616515159606934,0.432033509016037,17.53110694885254,22.75420570373535,-97.9765625,107,-11,1,176,0.0033176569268107414,0.22185559570789337,0.23556330800056458,0.011749044992029667,0.006223668809980154,0.033118605613708496,-0.9993630051612854
27467.158,-0.06930067390203476,-0.07165955007076263,0.37405481934547424,0.17804189026355743,-2.162769317626953,0.48145291209220886,13.023466110229492,17.10576057434082,-225.85806274414062,107,-11,1,176,0.0033176569268107414,0.22185559570789337,0.23556330800056458,0.011749044992029667,0.006223668809980154,0.033118605613708496,-0.9993630051612854
27469.137,-0.06930067390203476,-0.07165955007076263,0.37405481934547424,0.2823505103588104,-1.9687341451644897,0.6881117224693298,14.00359058380127,16.036588668823242,-206.99578857421875,107,-11,1,176,0.0032659326680004597,0.22250190377235413,0.23692551255226135,0.011714451014995575,0.0056879171170294285,0.04341396316885948,-0.9989723563194275
27471.124,-0.06964784115552902,-0.0669764056801796,0.3406059443950653,0.26107075810432434,-1.5745021104812622,0.9913893342018127,22.82935905456543,17.575111389160156,-41.791542053222656,107,-11,1,176,0.0032659326680004597,0.22250190377235413,0.23692551255226135,0.011714451014995575,0.0056879171170294285,0.04341396316885948,-0.9989723563194275
27473.218,-0.06964784115552902,-0.0669764056801796,0.3406059443950653,0.18551303446292877,-1.3402302265167236,1.3000776767730713,35.002113342285156,9.494254112243652,93.89573669433594,107,-11,1,176,0.0024165944196283817,0.22286243736743927,0.23854029178619385,0.007913176901638508,0.006356323603540659,0.04009005054831505,-0.9991446137428284
27475.08,-0.06964784115552902,-0.0669764056801796,0.3406059443950653,0.06570077687501907,-1.3360544443130493,1.5595334768295288,43.70376205444336,-1.3688197135925293,118.60354614257812,107,-20,3,176,0.0024165944196283817,0.22286243736743927,0.23854029178619385,0.007913176901638508,0.006356323603540659,0.04009005054831505,-0.9991446137428284
27477.062,-0.06940821558237076,-0.056123036891222,0.3516923785209656,-0.06566768884658813,-1.4794825315475464,1.650468111038208,39.464210510253906,3.9090874195098877,113.6010971069336,107,-20,3,176,0.0024165944196283817,0.22286243736743927,0.23854029178619385,0.007913176901638508,0.006356323603540659,0.04009005054831505,-0.9991446137428284
27479.043,-0.06940821558237076,-0.056123036891222,0.3516923785209656,-0.10760840028524399,-1.6090754270553589,1.4291176795959473,15.9009370803833,16.147233963012695,139.50570678710938,107,-20,3,176,0.0021569160744547844,0.2222815752029419,0.24057774245738983,0.008108619600534439,0.003237966215237975,0.02960919961333275,-0.999523401260376
27481.028,-0.0721195787191391,-0.05039059370756149,0.399262011051178,-0.06375110149383545,-1.5671520233154297,0.9789769649505615,-18.724349975585938,11.065738677978516,152.47882080078125,107,-20,3,176,0.0021569160744547844,0.2222815752029419,0.24057774245738983,0.008108619600534439,0.003237966215237975,0.02960919961333275,-0.999523401260376
27483.123,-0.0721195787191391,-0.05039059370756149,0.399262011051178,-0.05786832794547081,-1.293155550956726,0.5265468955039978,-42.16674041748047,-6.747374534606934,103.9742202758789,107,-20,3,176,0.0021569160744547844,0.2222815752029419,0.24057774245738983,0.008108619600534439,0.003237966215237975,0.02960919961333275,-0.999523401260376
27484.986,-0.0721195787191391,-0.05039059370756149,0.399262011051178,-0.03530870005488396,-0.7858290672302246,0.1755954921245575,-47.59794616699219,-11.957315444946289,39.40676498413086,107,3,2,176,0.0006935752462595701,0.2214720994234085,0.24264994263648987,0.004168203566223383,0.00815709587186575,0.014866570010781288,-0.9998475909233093
27486.986,-0.07279951125383377,-0.046096350997686386,0.4120413362979889,0.0411880686879158,-0.2269306480884552,-0.08698919415473938,-49.17274856567383,-1.5594276189804077,32.58347702026367,107,3,2,176,0.0006935752462595701,0.2214720994234085,0.24264994263648987,0.004168203566223383,0.00815709587186575,0.014866570010781288,-0.9998475909233093
27488.948,-0.07279951125383377,-0.046096350997686386,0.4120413362979889,0.016484297811985016,0.12871572375297546,-0.1978835165500641,-64.90918731689453,5.713819980621338,55.46676254272461,107,3,2,176,0.0006935752462595701,0.2214720994234085,0.24264994263648987,0.004168203566223383,0.00815709587186575,0.014866570010781288,-0.9998475909233093
27490.934,-0.07279951125383377,-0.046096350997686386,0.4120413362979889,-0.0850500538945198,0.2838999927043915,-0.08322438597679138,-90.79389953613281,6.38884162902832,27.72249984741211,107,3,2,176,0.001609142404049635,0.22089633345603943,0.24433627724647522,0.012420041486620903,0.005587622057646513,0.0070870984345674515,-0.9998822212219238
27493.041,-0.0707177072763443,-0.04504148289561272,0.33536508679389954,-0.027879565954208374,0.5616757869720459,0.1624433994293213,-117.93583679199219,7.534367561340332,-11.082540512084961,123,3,2,176,0.001609142404049635,0.22089633345603943,0.24433627724647522,0.012420041486620903,0.005587622057646513,0.0070870984345674515,-0.9998822212219238
27494.9,-0.06712052971124649,-0.04353466257452965,0.2184053659439087,0.15909959375858307,0.9230666160583496,0.431360125541687,-131.0227508544922,10.87239933013916,10.895633697509766,123,17,6,176,0.001609142404049635,0.22089633345603943,0.24433627724647522,0.012420041486620903,0.005587622057646513,0.0070870984345674515,-0.9998822212219238
27496.88,-0.06712052971124649,-0.04353466257452965,0.2184053659439087,0.14169228076934814,1.0507370233535767,0.7137281894683838,-127.33934020996094,10.35037899017334,70.28804779052734,123,17,6,176,0.0014052632031962276,0.22000400722026825,0.24568107724189758,0.01777905412018299,0.004657382611185312,0.007639219053089619,-0.9998018741607666
27498.852,-0.0680813267827034,-0.040556322783231735,0.22961576282978058,-0.12271490693092346,0.8533523082733154,0.9930064082145691,-126.67546081542969,4.767740726470947,49.9964599609375,123,17,6,176,0.0014052632031962276,0.22000400722026825,0.24568107724189758,0.01777905412018299,0.004657382611185312,0.007639219053089619,-0.9998018741607666
27500.833,-0.0680813267827034,-0.040556322783231735,0.22961576282978058,-0.2172616422176361,0.5729091167449951,1.1927642822265625,-135.8351287841797,1.5700085163116455,-119.10228729248047,123,17,6,176,0.0005933402571827173,0.21966466307640076,0.24743898212909698,0.023462502285838127,0.002657434670254588,0.01785888709127903,-0.9995617270469666
27502.935,-0.06798087060451508,-0.03871169686317444,0.20630572736263275,-0.13227830827236176,0.6481115221977234,1.2845203876495361,-145.8664093017578,-0.2383618801832199,-316.7015075683594,123,17,6,176,0.0005933402571827173,0.21966466307640076,0.24743898212909698,0.023462502285838127,0.002657434670254588,0.01785888709127903,-0.9995617270469666
27504.795,-0.06798087060451508,-0.03871169686317444,0.20630572736263275,-0.04582912102341652,1.2907702922821045,1.2382924556732178,-148.34552001953125,-3.7154202461242676,-343.5664978027344,123,21,2,176,0.0005933402571827173,0.21966466307640076,0.24743898212909698,0.023462502285838127,0.002657434670254588,0.01785888709127903,-0.9995617270469666
27506.778,-0.06816495954990387,-0.03756216540932655,0.20660042762756348,0.008136048913002014,2.091567039489746,1.125891923904419,-130.8913116455078,-6.983426094055176,-154.3395233154297,123,21,2,176,0.0005139552522450686,0.21976512670516968,0.24859267473220825,0.028502080589532852,0.002299393992871046,0.028419049456715584,-0.9991870522499084
27508.766,-0.06806281954050064,-0.03657488897442818,0.21841470897197723,0.12414119392633438,2.333405017852783,0.8830491900444031,-86.07060241699219,-6.504456520080566,71.89571380615234,123,21,2,176,0.0005139552522450686,0.21976512670516968,0.24859267473220825,0.028502080589532852,0.002299393992871046,0.028419049456715584,-0.9991870522499084
27510.742,-0.06806281954050064,-0.03657488897442818,0.21841470897197723,0.28367292881011963,1.8299790620803833,0.6405057311058044,-27.720571517944336,6.423542499542236,169.8306884765625,123,21,2,176,0.0005139552522450686,0.21976512670516968,0.24859267473220825,0.028502080589532852,0.002299393992871046,0.028419049456715584,-0.9991870522499084
27512.848,-0.06806281954050064,-0.03657488897442818,0.21841470897197723,0.2803577482700348,0.8631941080093384,0.5762532949447632,24.275007247924805,19.5081787109375,158.87893676757812,123,21,2,176,0.00023936605430208147,0.22010032832622528,0.25027966499328613,0.036522943526506424,0.0032361457124352455,0.04161601513624191,-0.9984607100486755
27514.699,-0.06842886656522751,-0.03014056570827961,0.22478686273097992,0.09701390564441681,-0.17694403231143951,0.6299577355384827,59.53752517700195,15.670472145080566,98.87639617919922,123,34,0,176,0.00023936605430208147,0.22010032832622528,0.25027966499328613,0.036522943526506424,0.0032361457124352455,0.04161601513624191,-0.9984607100486755
27516.686,-0.06781225651502609,-0.052252575755119324,0.229877769947052,-0.14725618064403534,-0.8927901983261108,0.6646336317062378,70.39212036132812,8.739178657531738,-14.444390296936035,123,34,0,176,0.00023936605430208147,0.22010032832622528,0.25027966499328613,0.036522943526506424,0.0032361457124352455,0.04161601513624191,-0.9984607100486755
27518.66,-0.06781225651502609,-0.052252575755119324,0.229877769947052,-0.2836853265762329,-0.7381512522697449,0.6002874970436096,58.21337890625,18.815797805786133,-162.18521118164062,123,34,0,176,0.0004123114631511271,0.2209918349981308,0.2522468864917755,0.03471168503165245,0.004453035071492195,0.04656136408448219,-0.9983022212982178
27520.642,-0.067721426486969,-0.05082489550113678,0.24255061149597168,-0.16828779876232147,0.3843192756175995,0.49121132493019104,36.349769592285156,33.067630767822266,-239.45947265625,123,34,0,176,0.0004123114631511271,0.2209918349981308,0.2522468864917755,0.03471168503165245,0.004453035071492195,0.04656136408448219,-0.9983022212982178
27522.744,-0.067721426486969,-0.05082489550113678,0.24255061149597168,0.08996836841106415,1.6677899360656738,0.5172021389007568,28.989978790283203,29.77157211303711,-124.78894805908203,123,34,0,176,-0.0005774248857051134,0.2210645079612732,0.253313273191452,0.018100883811712265,0.005723124835640192,0.03270826116204262,-0.9992846250534058
27524.602,-0.067721426486969,-0.05082489550113678,0.24255061149597168,0.23339931666851044,2.291590452194214,0.8018795847892761,34.44419860839844,22.241743087768555,135.56741333007812,123,-10,5,176,-0.0005774248857051134,0.2210645079612732,0.253313273191452,0.018100883811712265,0.005723124835640192,0.03270826116204262,-0.9992846250534058
27526.584,-0.0671144500374794,-0.03962055966258049,0.21436114609241486,0.15745751559734344,2.287217855453491,1.1504806280136108,23.590694427490234,25.051851272583008,324.49041748046875,123,-10,5,176,-0.0005774248857051134,0.2210645079612732,0.253313273191452,0.018100883811712265,0.005723124835640192,0.03270826116204262,-0.9992846250534058
27528.568,-0.0671144500374794,-0.03962055966258049,0.21436114609241486,-0.013293006457388401,1.8126660585403442,1.4715949296951294,-1.3029571771621704,26.94317054748535,314.1236267089844,123,-10,5,176,-0.0004398694436531514,0.22401991486549377,0.2538577616214752,0.029544489458203316,0.00029368314426392317,0.01685260608792305,-0.9994213581085205
27530.546,-0.0670246034860611,-0.03790650516748428,0.22728054225444794,-0.12432972341775894,1.0157109498977661,1.6735872030258179,-18.91951560974121,21.969581604003906,205.52444458007812,123,-10,5,176,-0.0004398694436531514,0.22401991486549377,0.2538577616214752,0.029544489458203316,0.00029368314426392317,0.01685260608792305,-0.9994213581085205
27532.657,-0.0670246034860611,-0.03790650516748428,0.22728054225444794,-0.12175344675779343,0.16833706200122833,1.639451265335083,-15.578035354614258,26.730661392211914,120.65885162353516,123,-10,5,176,-0.0004398694436531514,0.22401991486549377,0.2538577616214752,0.029544489458203316,0.00029368314426392317,0.01685260608792305,-0.9994213581085205
27534.514,-0.0683446004986763,-0.030223000794649124,0.24429695308208466,-0.008699068799614906,-0.46167412400245667,1.5101591348648071,11.646427154541016,38.94831085205078,41.584564208984375,123,-6,19,176,-0.0005440316163003445,0.22512692213058472,0.255244642496109,0.030497262254357338,-0.0018512029200792313,0.00769020477309823,-0.9995036125183105
27536.489,-0.07256301492452621,-0.024091534316539764,0.25677648186683655,0.07948784530162811,-0.7233858704566956,1.3566350936889648,44.79156494140625,34.83041763305664,-27.464418411254883,136,-6,19,176,-0.0005440316163003445,0.22512692213058472,0.255244642496109,0.030497262254357338,-0.0018512029200792313,0.00769020477309823,-0.9995036125183105
27538.482,-0.0692116990685463,-0.024037078022956848,0.1531364619731903,-0.00205581309273839,-0.7437896728515625,1.2440519332885742,59.38496017456055,14.78221321105957,-49.32360076904297,136,-6,19,176,-0.0005440316163003445,0.22512692213058472,0.255244642496109,0.030497262254357338,-0.0018512029200792313,0.00769020477309823,-0.9995036125183105
27540.454,-0.0692116990685463,-0.024037078022956848,0.1531364619731903,-0.22463315725326538,-0.6862968802452087,1.2787142992019653,51.004913330078125,-1.1052452325820923,-73.44497680664062,136,-6,19,176,-0.001046299235895276,0.22679275274276733,0.2566169798374176,0.0259902011603117,-0.0007742305169813335,0.011972865089774132,-0.9995902180671692
27542.554,-0.06909432262182236,-0.022155385464429855,0.16426214575767517,-0.2660992741584778,-0.3865170478820801,1.2483972311019897,24.364303588867188,1.7973237037658691,-175.2716064453125,136,-6,19,176,-0.001046299235895276,0.22679275274276733,0.2566169798374176,0.0259902011603117,-0.0007742305169813335,0.011972865089774132,-0.9995902180671692
27544.418,-0.06980779021978378,-0.01361645944416523,0.20153000950813293,0.06481966376304626,-0.07707982510328293,0.9844831824302673,10.018424034118652,19.09600067138672,-264.89862060546875,136,-15,5,176,-0.001046299235895276,0.22679275274276733,0.2566169798374176,0.0259902011603117,-0.0007742305169813335,0.011972865089774132,-0.9995902180671692
27546.396,-0.07005436718463898,-0.0037209850270301104,0.21326057612895966,0.40878191590309143,-0.3900006413459778,0.8297502994537354,40.66699981689453,35.96100997924805,-111.12126922607422,136,-15,5,176,-0.0006585461087524891,0.22810867428779602,0.25880107283592224,0.02140490710735321,-0.0044448296539485455,0.02127453312277794,-0.9995346069335938
27548.378,-0.07005436718463898,-0.0037209850270301104,0.21326057612895966,0.39294299483299255,-1.4120159149169922,0.8074731826782227,79.86100769042969,41.161766052246094,196.802490234375,136,-15,5,176,-0.0006585461087524891,0.22810867428779602,0.25880107283592224,0.02140490710735321,-0.0044448296539485455,0.02127453312277794,-0.9995346069335938
27550.359,-0.07005436718463898,-0.0037209850270301104,0.21326057612895966,0.15967567265033722,-2.3985068798065186,0.8620891571044922,82.67130279541016,27.82956886291504,236.22984313964844,136,-15,5,176,-0.0012661993969231844,0.22888873517513275,0.26009541749954224,0.024603605270385742,-0.003229453694075346,0.03439575806260109,-0.9991001486778259
27552.458,-0.06992378830909729,-0.0017141096759587526,0.22532236576080322,-0.08575379848480225,-2.7493858337402344,1.130618691444397,60.723480224609375,6.996643543243408,-64.48568725585938,136,-15,5,176,-0.0012661993969231844,0.22888873517513275,0.26009541749954224,0.024603605270385742,-0.003229453694075346,0.03439575806260109,-0.9991001486778259
27554.32,-0.06948582082986832,0.00398206664249301,0.21806520223617554,-0.17976227402687073,-2.5163917541503906,1.4866633415222168,48.81462478637695,-6.359874248504639,-302.31402587890625,136,-27,7,176,-0.0012661993969231844,0.22888873517513275,0.26009541749954224,0.024603605270385742,-0.003229453694075346,0.03439575806260109,-0.9991001486778259
27556.301,-0.07102494686841965,0.014786310493946075,0.21613353490829468,-0.15707914531230927,-2.1554172039031982,1.714431881904602,60.05561065673828,-5.670357704162598,-196.8482208251953,136,-27,7,176,-0.0013662275159731507,0.2294301837682724,0.2611903250217438,0.016905982047319412,-0.005431026220321655,0.032299332320690155,-0.9993205070495605
27558.282,-0.07085076719522476,0.016760967671871185,0.22918394207954407,-0.10132721066474915,-1.9262197017669678,1.6485830545425415,80.56097412109375,5.277892112731934,87.59490203857422,136,-27,7,176,-0.0013662275159731507,0.2294301837682724,0.2611903250217438,0.016905982047319412,-0.005431026220321655,0.032299332320690155,-0.9993205070495605
27560.263,-0.07085076719522476,0.016760967671871185,0.22918394207954407,-0.043217141181230545,-1.6135681867599487,1.3922781944274902,69.58041381835938,12.460865020751953,241.02401733398438,136,-27,7,176,-0.0013662275159731507,0.2294301837682724,0.2611903250217438,0.016905982047319412,-0.005431026220321655,0.032299332320690155,-0.9993205070495605
27562.362,-0.07085076719522476,0.016760967671871185,0.22918394207954407,0.04218777269124985,-1.172758936882019,1.0484727621078491,14.542620658874512,0.8098878264427185,176.47816467285156,136,-27,7,176,-0.0022276672534644604,0.22997751832008362,0.26310300827026367,0.014222255907952785,-0.0035179168917238712,0.028323780745267868,-0.9994914531707764
