timestamp,stateEstimate.vx,stateEstimate.vy,stateEstimate.vz,acc.x,acc.y,acc.z,gyro.x,gyro.y,gyro.z,range.zrange,mtf02.dpixelX,mtf02.dpixelY,mtf02.flowQual,locSrv.x,locSrv.y,locSrv.z,locSrv.qx,locSrv.qy,locSrv.qz,locSrv.qw
135417.522,0.005800110753625631,-0.0020019682124257088,0.0014363243244588375,0.03703628480434418,-0.021527115255594254,0.9991996884346008,-0.18355335295200348,0.16691885888576508,0.0036411110777407885,20,0.0,0.0,162,0.051034409552812576,-0.03450293466448784,0.14939500391483307,-0.005003649275749922,-0.0015943095786496997,-0.002026997273787856,0.9999842047691345
135419.557,0.005800110753625631,-0.0020019682124257088,0.0014363243244588375,0.036628756672143936,-0.021171221509575844,0.9993396401405334,-0.07475563883781433,-0.04690017178654671,0.028759580105543137,20,0.0,0.0,162,0.051034409552812576,-0.03450293466448784,0.14939500391483307,-0.005003649275749922,-0.0015943095786496997,-0.002026997273787856,0.9999842047691345
135421.484,0.005800110753625631,-0.0020019682124257088,0.0014363243244588375,0.035846296697854996,-0.020812589675188065,0.9993996024131775,-0.019308436661958694,-0.015008870512247086,0.007543671876192093,20,0.0,0.0,162,0.05116266384720802,-0.03433770686388016,0.14966322481632233,-0.00551518565043807,-0.0013582039391621947,-0.001732963602989912,0.9999823570251465
135423.5,0.00556083582341671,-0.0018349988386034966,0.013295565731823444,0.034871771931648254,-0.02056334912776947,0.9996846318244934,-0.01903235726058483,-0.029642507433891296,0.026801008731126785,20,0.0,0.0,162,0.05116266384720802,-0.03433770686388016,0.14966322481632233,-0.00551518565043807,-0.0013582039391621947,-0.001732963602989912,0.9999823570251465
135425.451,0.00556083582341671,-0.0018349988386034966,0.013295565731823444,0.03398960083723068,-0.02059074118733406,0.9999488592147827,0.02440255507826805,0.01783652789890766,0.12301748245954514,20,0.0,0.0,162,0.051231928169727325,-0.034247253090143204,0.1498965322971344,-0.005956897512078285,-0.0016499324701726437,-0.0013975701294839382,0.9999799132347107
135427.439,0.00556083582341671,-0.0018349988386034966,0.013295565731823444,0.033624377101659775,-0.020696435123682022,0.999739408493042,0.07068074494600296,0.08116710186004639,0.1770172119140625,20,0.0,0.0,162,0.051231928169727325,-0.034247253090143204,0.1498965322971344,-0.005956897512078285,-0.0016499324701726437,-0.0013975701294839382,0.9999799132347107
135429.456,0.005875055678188801,-0.0022595077753067017,-0.02026648446917534,0.033799849450588226,-0.020995093509554863,0.9991969466209412,-0.04306493699550629,0.043178778141736984,0.12668971717357635,20,0.0,0.0,162,0.051231928169727325,-0.034247253090143204,0.1498965322971344,-0.005956897512078285,-0.0016499324701726437,-0.0013975701294839382,0.9999799132347107
135431.39,0.005875055678188801,-0.0022595077753067017,-0.02026648446917534,0.0344698429107666,-0.021513711661100388,0.9986995458602905,-0.14964398741722107,0.04898799955844879,-0.025368202477693558,20,0.0,0.0,162,0.05103403329849243,-0.03451758250594139,0.149315744638443,-0.0049821664579212666,-0.0015881541185081005,-0.002195850946009159,0.9999839067459106
135433.407,0.005657467059791088,-0.002128428779542446,-0.009740451350808144,0.035491377115249634,-0.021826760843396187,0.9981931447982788,-0.10871954262256622,0.08984304964542389,-0.05787001550197601,20,0.0,0.0,162,0.05103403329849243,-0.03451758250594139,0.149315744638443,-0.0049821664579212666,-0.0015881541185081005,-0.002195850946009159,0.9999839067459106
135435.351,0.005657467059791088,-0.002128428779542446,-0.009740451350808144,0.03631984442472458,-0.021668996661901474,0.9978647828102112,-0.06872851401567459,0.20945177972316742,0.04986344650387764,20,0.0,0.0,162,0.05103403329849243,-0.03451758250594139,0.149315744638443,-0.0049821664579212666,-0.0015881541185081005,-0.002195850946009159,0.9999839067459106
135437.332,0.005657467059791088,-0.002128428779542446,-0.009740451350808144,0.03657176345586777,-0.021235860884189606,0.9975931644439697,-0.03280673176050186,0.3292333483695984,0.21866507828235626,20,0.0,0.0,162,0.05103946477174759,-0.034564875066280365,0.14934156835079193,-0.004809931851923466,-0.0015904116444289684,-0.002264625858515501,0.999984622001648
135439.362,0.005800499115139246,-0.0021362637635320425,0.0019761244766414165,0.03637648746371269,-0.020900534465909004,0.9974215626716614,-0.05237939581274986,0.3922540247440338,0.23811820149421692,20,0.0,0.0,162,0.05103946477174759,-0.034564875066280365,0.14934156835079193,-0.004809931851923466,-0.0015904116444289684,-0.002264625858515501,0.999984622001648
135441.296,0.005800499115139246,-0.0021362637635320425,0.0019761244766414165,0.036043066531419754,-0.020746106281876564,0.9973340034484863,-0.11682987958192825,0.3260500729084015,0.09154141694307327,20,0.0,0.0,162,0.05103946477174759,-0.034564875066280365,0.14934156835079193,-0.004809931851923466,-0.0015904116444289684,-0.002264625858515501,0.999984622001648
135443.316,0.005800499115139246,-0.0021362637635320425,0.0019761244766414165,0.03579399362206459,-0.020721910521388054,0.9972327947616577,-0.1512182056903839,0.11239424347877502,-0.04749184474349022,20,0.0,0.0,162,0.051056116819381714,-0.03451066091656685,0.14939454197883606,-0.004990647081285715,-0.0015787164447829127,-0.002030878094956279,0.9999842643737793
135445.262,0.005566184874624014,-0.001996152102947235,0.013394770212471485,0.035764556378126144,-0.020488936454057693,0.9974198341369629,-0.07201004028320312,-0.04119263216853142,-0.012450878508388996,20,0.0,0.0,162,0.051056116819381714,-0.03451066091656685,0.14939454197883606,-0.004990647081285715,-0.0015787164447829127,-0.002030878094956279,0.9999842643737793
135447.243,0.005566184874624014,-0.001996152102947235,0.013394770212471485,0.0358973927795887,-0.020089944824576378,0.9981106519699097,0.022288141772150993,-0.09308578073978424,0.10299897193908691,20,0.0,0.0,162,0.05104038491845131,-0.034537144005298615,0.14936348795890808,-0.004928473848849535,-0.001554248621687293,-0.002156469039618969,0.9999843835830688
135449.266,0.005566184874624014,-0.001996152102947235,0.013394770212471485,0.036169979721307755,-0.019741972908377647,0.9987644553184509,0.04502467066049576,-0.1412242352962494,0.09078919142484665,20,0.0,0.0,162,0.05104038491845131,-0.034537144005298615,0.14936348795890808,-0.004928473848849535,-0.001554248621687293,-0.002156469039618969,0.9999843835830688
135451.204,0.00559978699311614,-0.002348103793337941,-0.017982207238674164,0.036533206701278687,-0.01946788839995861,0.9989916086196899,0.007748718839138746,-0.2721041142940521,0.07879345864057541,20,0.0,0.0,162,0.05104038491845131,-0.034537144005298615,0.14936348795890808,-0.004928473848849535,-0.001554248621687293,-0.002156469039618969,0.9999843835830688
135453.213,0.00559978699311614,-0.002348103793337941,-0.017982207238674164,0.03672921657562256,-0.019349079579114914,0.9988894462585449,-0.0975106731057167,-0.21774588525295258,0.11660629510879517,20,0.0,0.0,162,0.0511615052819252,-0.034344013780355453,0.1495736986398697,-0.0055487025529146194,-0.0012823085999116302,-0.0017378437332808971,0.9999823570251465
135455.168,0.005399896763265133,-0.0022032707929611206,-0.007842125371098518,0.036632779985666275,-0.019515203312039375,0.9988055229187012,-0.2537781000137329,-0.005545434076339006,0.15363995730876923,20,0.0,0.0,162,0.0511615052819252,-0.034344013780355453,0.1495736986398697,-0.0055487025529146194,-0.0012823085999116302,-0.0017378437332808971,0.9999823570251465
135457.143,0.005399896763265133,-0.0022032707929611206,-0.007842125371098518,0.03669790178537369,-0.019804254174232483,0.9991079568862915,-0.2427908033132553,0.16353534162044525,0.0859089344739914,20,0.0,0.0,162,0.0511615052819252,-0.034344013780355453,0.1495736986398697,-0.0055487025529146194,-0.0012823085999116302,-0.0017378437332808971,0.9999823570251465
135459.172,0.0059228320606052876,-0.0021728496067225933,-0.007880487479269505,0.036993514746427536,-0.019863873720169067,0.9996541738510132,-0.14173881709575653,0.07937556505203247,-0.04331790655851364,20,0.0,0.0,162,0.051166895776987076,-0.0343487523496151,0.14961367845535278,-0.005498639773577452,-0.0012823942815884948,-0.001784869353286922,0.999982476234436
135461.109,0.005693512968719006,-0.0020100013352930546,0.0035578878596425056,0.036965616047382355,-0.020023992285132408,1.0002554655075073,-0.17244528234004974,-0.04041960835456848,-0.08701229840517044,20,0.0,0.0,162,0.051166895776987076,-0.0343487523496151,0.14961367845535278,-0.005498639773577452,-0.0012823942815884948,-0.001784869353286922,0.999982476234436
135463.131,0.005693512968719006,-0.0020100013352930546,0.0035578878596425056,0.036574337631464005,-0.020208870992064476,1.0008429288864136,-0.24676230549812317,-0.05158238112926483,0.08816637843847275,20,0.0,0.0,162,0.051166895776987076,-0.0343487523496151,0.14961367845535278,-0.005498639773577452,-0.0012823942815884948,-0.001784869353286922,0.999982476234436
135465.074,0.005693512968719006,-0.0020100013352930546,0.0035578878596425056,0.036025356501340866,-0.02028406225144863,1.0013384819030762,-0.19234400987625122,0.08662804961204529,0.3221208453178406,20,0.0,0.0,162,0.05120038241147995,-0.03433019667863846,0.14968419075012207,-0.005474342033267021,-0.0012926319614052773,-0.001808216911740601,0.9999825954437256
135467.065,0.005476204212754965,-0.001855035894550383,0.014656797982752323,0.035123661160469055,-0.02053222432732582,1.001712679862976,-0.05781218409538269,0.2783290147781372,0.2053638994693756,20,0.0,0.0,162,0.05120038241147995,-0.03433019667863846,0.14968419075012207,-0.005474342033267021,-0.0012926319614052773,-0.001808216911740601,0.9999825954437256
135469.088,0.0051263668574392796,-0.001675235340371728,0.014771748334169388,0.03409678861498833,-0.02087542600929737,1.001770257949829,0.09216438978910446,0.3232801854610443,-0.05709010362625122,20,0.0,0.0,162,0.05112903192639351,-0.03439515456557274,0.1494942307472229,-0.005496883764863014,-0.0014072901103645563,-0.0019112209556624293,0.9999821186065674
135471.011,0.005888015031814575,-0.002124567050486803,-0.016333824023604393,0.033627402037382126,-0.021078461781144142,1.0014612674713135,0.15221193432807922,0.2329086810350418,-0.11137975752353668,20,0.0,0.0,162,0.05112903192639351,-0.03439515456557274,0.1494942307472229,-0.005496883764863014,-0.0014072901103645563,-0.0019112209556624293,0.9999821186065674
135473.023,0.005888015031814575,-0.002124567050486803,-0.016333824023604393,0.0336187407374382,-0.021299343556165695,1.0012019872665405,0.1686306595802307,0.0991562157869339,-0.031440384685993195,20,0.0,0.0,162,0.05112903192639351,-0.03439515456557274,0.1494942307472229,-0.005496883764863014,-0.0014072901103645563,-0.0019112209556624293,0.9999821186065674
135474.983,0.005888015031814575,-0.002124567050486803,-0.016333824023604393,0.033796440809965134,-0.021669378504157066,1.0011522769927979,0.022352667525410652,-0.06816936284303665,-0.12203259766101837,20,0.0,0.0,162,0.05112903192639351,-0.03439515456557274,0.1494942307472229,-0.005496883764863014,-0.0014072901103645563,-0.0019112209556624293,0.9999821186065674
135476.953,0.005888015031814575,-0.002124567050486803,-0.016333824023604393,0.034055355936288834,-0.021951433271169662,1.001062035560608,-0.1690637469291687,-0.24130983650684357,-0.1087319627404213,20,0.0,0.0,162,0.05113880708813667,-0.03435080125927925,0.14956629276275635,-0.005561515223234892,-0.0013331464724615216,-0.0017534017097204924,0.9999821186065674
135478.983,0.005956078879535198,-0.0021051031071692705,-0.006163508631289005,0.03423900157213211,-0.0219456497579813,1.000806212425232,-0.20116011798381805,-0.12715767323970795,0.11165482550859451,20,0.0,0.0,162,0.05113880708813667,-0.03435080125927925,0.14956629276275635,-0.005561515223234892,-0.0013331464724615216,-0.0017534017097204924,0.9999821186065674
135480.915,0.005956078879535198,-0.0021051031071692705,-0.006163508631289005,0.03460206836462021,-0.02186129055917263,1.000239372253418,-0.09053643047809601,0.14334474503993988,0.1430300772190094,20,0.0,0.0,162,0.05112535506486893,-0.03434600308537483,0.14950361847877502,-0.005565002094954252,-0.0013824094785377383,-0.001839656732045114,0.9999818801879883
135482.939,0.005727970506995916,-0.001946404343470931,0.005055874586105347,0.035191405564546585,-0.021680017933249474,0.9995654225349426,-0.0656958743929863,0.2640839219093323,-0.0492861345410347,20,0.0,0.0,162,0.05112535506486893,-0.03434600308537483,0.14950361847877502,-0.005565002094954252,-0.0013824094785377383,-0.001839656732045114,0.9999818801879883
135484.878,0.005727970506995916,-0.001946404343470931,0.005055874586105347,0.03583633154630661,-0.021243933588266373,0.9991130232810974,-0.11641382426023483,0.24497075378894806,-0.14165657758712769,20,0.0,0.0,162,0.05112535506486893,-0.03434600308537483,0.14950361847877502,-0.005565002094954252,-0.0013824094785377383,-0.001839656732045114,0.9999818801879883
135486.867,0.005727970506995916,-0.001946404343470931,0.005055874586105347,0.03648703545331955,-0.020715173333883286,0.9987959265708923,-0.1373107135295868,0.10207653790712357,-0.06194763258099556,20,0.0,0.0,162,0.051160719245672226,-0.03435715660452843,0.14959289133548737,-0.005493740551173687,-0.0012613438302651048,-0.0017565730959177017,0.9999825954437256
135488.9,0.005727970506995916,-0.001946404343470931,0.005055874586105347,0.037030428647994995,-0.020366786047816277,0.9986008405685425,-0.11390268802642822,-0.005674856249243021,-0.021203743293881416,20,0.0,0.0,162,0.051160719245672226,-0.03435715660452843,0.14959289133548737,-0.005493740551173687,-0.0012613438302651048,-0.0017565730959177017,0.9999825954437256
135490.837,0.005713946186006069,-0.002281605266034603,-0.023653240874409676,0.037250906229019165,-0.020040059462189674,0.9988600611686707,-0.10639756172895432,0.034087885171175,0.02450735680758953,20,0.0,0.0,162,0.05112706869840622,-0.034337908029556274,0.1495363712310791,-0.0055554211139678955,-0.0013087807456031442,-0.0018464650493115187,0.9999819993972778
135492.843,0.005511292722076178,-0.0021377969533205032,-0.01360267773270607,0.037179283797740936,-0.019593290984630585,0.9995566606521606,-0.19788941740989685,0.16079044342041016,0.10206756740808487,20,0.0,0.0,162,0.05112706869840622,-0.034337908029556274,0.1495363712310791,-0.0055554211139678955,-0.0013087807456031442,-0.0018464650493115187,0.9999819993972778
135494.783,0.005511292722076178,-0.0021377969533205032,-0.01360267773270607,0.03687635809183121,-0.01921902410686016,1.000423789024353,-0.12201502919197083,0.13937503099441528,0.16020509600639343,20,0.0,0.0,162,0.05112706869840622,-0.034337908029556274,0.1495363712310791,-0.0055554211139678955,-0.0013087807456031442,-0.0018464650493115187,0.9999819993972778
135496.774,0.005511292722076178,-0.0021377969533205032,-0.01360267773270607,0.0362689234316349,-0.01902923546731472,1.0010038614273071,-0.003872620640322566,-0.06215665116906166,0.017706280574202538,20,0.0,0.0,162,0.05112706869840622,-0.034337908029556274,0.1495363712310791,-0.0055554211139678955,-0.0013087807456031442,-0.0018464650493115187,0.9999819993972778
135498.793,0.0060730138793587685,-0.002131412271410227,-0.01358159352093935,0.03551878780126572,-0.01906568557024002,1.000862717628479,-0.039376940578222275,-0.004838206805288792,-0.0176994651556015,20,0.0,0.0,162,0.05114023759961128,-0.03433278948068619,0.14955078065395355,-0.005513722077012062,-0.0013158750953152776,-0.0019690776243805885,0.9999819993972778
135500.726,0.005839544348418713,-0.0019679327961057425,-0.002190421335399151,0.035043951123952866,-0.019341662526130676,1.0001835823059082,-0.19109828770160675,0.14208495616912842,0.1029113233089447,20,0.0,0.0,162,0.05114023759961128,-0.03433278948068619,0.14955078065395355,-0.005513722077012062,-0.0013158750953152776,-0.0019690776243805885,0.9999819993972778
135502.738,0.005839544348418713,-0.0019679327961057425,-0.002190421335399151,0.03500230982899666,-0.019677191972732544,0.9997857213020325,-0.2672465443611145,0.09894339740276337,0.1156390830874443,20,0.0,0.0,162,0.05109358951449394,-0.034531883895397186,0.1494230031967163,-0.004840642213821411,-0.0013691603671759367,-0.002050996758043766,0.9999852180480957
135504.696,0.005615199916064739,-0.001837382442317903,0.008850080892443657,0.03515370190143585,-0.019943153485655785,0.9998409748077393,-0.13699866831302643,0.011527099646627903,0.10467522591352463,20,0.0,0.0,162,0.05109358951449394,-0.034531883895397186,0.1494230031967163,-0.004840642213821411,-0.0013691603671759367,-0.002050996758043766,0.9999852180480957
135506.678,0.005615199916064739,-0.001837382442317903,0.008850080892443657,0.035318005830049515,-0.020258672535419464,1.0002027750015259,-0.09947539120912552,0.09816443175077438,0.07717714458703995,20,0.0,0.0,162,0.05109358951449394,-0.034531883895397186,0.1494230031967163,-0.004840642213821411,-0.0013691603671759367,-0.002050996758043766,0.9999852180480957
135508.71,0.006019116844981909,-0.0017870437586680055,0.008957824669778347,0.03532787784934044,-0.0204312801361084,1.0004682540893555,-0.12461256235837936,0.03821270912885666,0.06167205795645714,20,0.0,0.0,162,0.05103224515914917,-0.03452419489622116,0.1493314951658249,-0.00505589134991169,-0.0016422271728515625,-0.0021343689877539873,0.9999836087226868
135510.632,0.004650056827813387,-0.0014162281295284629,0.021259702742099762,0.035279303789138794,-0.020262962207198143,1.0003221035003662,-0.004716494586318731,-0.14727576076984406,0.1543399542570114,20,0.0,0.0,162,0.05103224515914917,-0.03452419489622116,0.1493314951658249,-0.00505589134991169,-0.0016422271728515625,-0.0021343689877539873,0.9999836087226868
135512.646,0.005626259371638298,-0.002008741954341531,-0.020476873964071274,0.03531214967370033,-0.020118609070777893,0.9997141361236572,0.06871490925550461,-0.17555180191993713,0.22451256215572357,20,0.0,0.0,162,0.05099848657846451,-0.03451038524508476,0.14927831292152405,-0.005123523995280266,-0.0017263975460082293,-0.001997106708586216,0.9999834299087524
135514.594,0.005420033819973469,-0.0018855612725019455,-0.010515877045691013,0.03531479090452194,-0.02007146365940571,0.9989684820175171,-0.013652630150318146,-0.044272951781749725,0.18397173285484314,20,0.0,0.0,162,0.05099848657846451,-0.03451038524508476,0.14927831292152405,-0.005123523995280266,-0.0017263975460082293,-0.001997106708586216,0.9999834299087524
135516.575,0.005420033819973469,-0.0018855612725019455,-0.010515877045691013,0.03531302511692047,-0.02002706378698349,0.9986167550086975,0.05340088531374931,0.21922488510608673,0.12391749024391174,20,0.0,0.0,162,0.05099848657846451,-0.03451038524508476,0.14927831292152405,-0.005123523995280266,-0.0017263975460082293,-0.001997106708586216,0.9999834299087524
135518.615,0.005813046358525753,-0.0019080247730016708,-0.010449022985994816,0.035455893725156784,-0.020123150199651718,0.998753547668457,0.012396767735481262,0.2544076442718506,0.12766419351100922,20,0.0,0.0,162,0.05099848657846451,-0.03451038524508476,0.14927831292152405,-0.005123523995280266,-0.0017263975460082293,-0.001997106708586216,0.9999834299087524
135520.536,0.005813046358525753,-0.0019080247730016708,-0.010449022985994816,0.03573194146156311,-0.020534243434667587,0.9992976784706116,-0.23931916058063507,-0.029025794938206673,0.1541278213262558,20,0.0,0.0,162,0.051009491086006165,-0.03449976444244385,0.1494002491235733,-0.005055135115981102,-0.001601117430254817,-0.001976191299036145,0.9999839663505554
135522.56,0.005575927905738354,-0.0017656697891652584,0.0008519928087480366,0.036149151623249054,-0.0210283026099205,0.9999878406524658,-0.272261381149292,-0.13996843993663788,0.1332182139158249,20,0.0,0.0,162,0.051009491086006165,-0.03449976444244385,0.1494002491235733,-0.005055135115981102,-0.001601117430254817,-0.001976191299036145,0.9999839663505554
135524.509,0.005575927905738354,-0.0017656697891652584,0.0008519928087480366,0.03652629256248474,-0.021117009222507477,1.0003435611724854,-0.1692088395357132,0.10094825178384781,0.05168129503726959,20,0.0,0.0,162,0.05110321566462517,-0.03436746075749397,0.14951622486114502,-0.005391823593527079,-0.0014052101178094745,-0.002002650173380971,0.9999825358390808
135526.481,0.0053534964099526405,-0.001616866560652852,0.011834511533379555,0.036778803914785385,-0.020770402625203133,1.0002299547195435,-0.07432829588651657,0.2510146200656891,0.03943546116352081,20,0.0,0.0,162,0.05110321566462517,-0.03436746075749397,0.14951622486114502,-0.005391823593527079,-0.0014052101178094745,-0.002002650173380971,0.9999825358390808
135528.515,0.005809145048260689,-0.001679845154285431,0.011866902932524681,0.03712248057126999,-0.020478500053286552,0.9997454881668091,-0.19327181577682495,0.16168232262134552,0.10487833619117737,20,0.0,0.0,162,0.05110321566462517,-0.03436746075749397,0.14951622486114502,-0.005391823593527079,-0.0014052101178094745,-0.002002650173380971,0.9999825358390808
135530.448,0.005809145048260689,-0.001679845154285431,0.011866902932524681,0.037522219121456146,-0.02076401561498642,0.9992952346801758,-0.2681582570075989,-0.018954576924443245,0.12217006832361221,20,0.0,0.0,162,0.0511271171271801,-0.03434459865093231,0.14957967400550842,-0.005586175713688135,-0.0015577739104628563,-0.0018227988621219993,0.9999815821647644
135532.456,0.00548554165288806,-0.0018480013823136687,-0.018142474815249443,0.0374765619635582,-0.021522358059883118,0.9988505244255066,-0.112358957529068,-0.12152062356472015,0.1168181300163269,20,0.0,0.0,162,0.0511271171271801,-0.03434459865093231,0.14957967400550842,-0.005586175713688135,-0.0015577739104628563,-0.0018227988621219993,0.9999815821647644
135534.414,0.00548554165288806,-0.0018480013823136687,-0.018142474815249443,0.0370878167450428,-0.02208871953189373,0.9985005855560303,0.044383902102708817,0.016718897968530655,0.07647810876369476,20,0.0,0.0,162,0.0511271171271801,-0.03434459865093231,0.14957967400550842,-0.005586175713688135,-0.0015577739104628563,-0.0018227988621219993,0.9999815821647644
135536.385,0.00548554165288806,-0.0018480013823136687,-0.018142474815249443,0.036560699343681335,-0.022086380049586296,0.9984584450721741,-0.007932286709547043,0.11087576299905777,0.013443417847156525,20,0.0,0.0,162,0.051133397966623306,-0.03433183953166008,0.14955885708332062,-0.005453893449157476,-0.0014113669749349356,-0.001876133494079113,0.9999823570251465
135538.415,0.00585491769015789,-0.0018340562237426639,-0.008183655329048634,0.03584609180688858,-0.02174120768904686,0.9986696839332581,-0.16920578479766846,-0.025202520191669464,-0.08714231848716736,20,0.0,0.0,162,0.051133397966623306,-0.03433183953166008,0.14955885708332062,-0.005453893449157476,-0.0014113669749349356,-0.001876133494079113,0.9999823570251465
135540.357,0.00585491769015789,-0.0018340562237426639,-0.008183655329048634,0.03521641343832016,-0.02143045887351036,0.999078631401062,-0.12195642292499542,0.06320150196552277,-0.09779974818229675,20,0.0,0.0,162,0.051133397966623306,-0.03433183953166008,0.14955885708332062,-0.005453893449157476,-0.0014113669749349356,-0.001876133494079113,0.9999823570251465
135542.37,0.00585491769015789,-0.0018340562237426639,-0.008183655329048634,0.034526925534009933,-0.021339816972613335,0.9995915293693542,-0.035277243703603745,0.23771575093269348,0.04913409426808357,20,0.0,0.0,162,0.05112309008836746,-0.03435930982232094,0.14954325556755066,-0.005459797102957964,-0.001509742345660925,-0.0017979335971176624,0.9999824166297913
135544.31,0.005622435361146927,-0.001678213244304061,0.003089476376771927,0.03410116955637932,-0.02124328352510929,1.0002278089523315,-0.022060519084334373,0.18501710891723633,0.1707562804222107,20,0.0,0.0,162,0.05112309008836746,-0.03435930982232094,0.14954325556755066,-0.005459797102957964,-0.001509742345660925,-0.0017979335971176624,0.9999824166297913
135546.291,0.005622435361146927,-0.001678213244304061,0.003089476376771927,0.034387677907943726,-0.02094419114291668,1.000847578048706,-0.014815010130405426,-0.044241175055503845,0.20091183483600616,20,0.0,0.0,162,0.05111398547887802,-0.03437807038426399,0.14952853322029114,-0.00546453520655632,-0.0013606877764686942,-0.001781088300049305,0.9999825358390808
135548.329,0.005720773711800575,-0.0016495028976351023,0.01568128913640976,0.03514108806848526,-0.020615072920918465,1.001090407371521,-0.01025277841836214,-0.15749649703502655,0.038280636072158813,20,0.0,0.0,162,0.05111398547887802,-0.03437807038426399,0.14952853322029114,-0.00546453520655632,-0.0013606877764686942,-0.001781088300049305,0.9999825358390808
135550.26,0.005720773711800575,-0.0016495028976351023,0.01568128913640976,0.03587852045893669,-0.02057824842631817,1.0012152194976807,-0.047882549464702606,-0.0078067113645374775,-0.11703957617282867,20,0.0,0.0,162,0.05111398547887802,-0.03437807038426399,0.14952853322029114,-0.00546453520655632,-0.0013606877764686942,-0.001781088300049305,0.9999825358390808
135552.266,0.005600679665803909,-0.0020673666149377823,-0.025151126086711884,0.03640506789088249,-0.020809967070817947,1.0013304948806763,-0.0713898167014122,0.22986210882663727,0.014337535947561264,20,0.0,0.0,162,0.05114520713686943,-0.034320998936891556,0.14952407777309418,-0.005624394863843918,-0.0014232101384550333,-0.0017265022033825517,0.9999817609786987
135554.217,0.005393363535404205,-0.0019202382536605,-0.014996590092778206,0.036869898438453674,-0.020900007337331772,1.0012197494506836,-0.08955022692680359,0.249161496758461,0.11537816375494003,20,0.0,0.0,162,0.05114520713686943,-0.034320998936891556,0.14952407777309418,-0.005624394863843918,-0.0014232101384550333,-0.0017265022033825517,0.9999817609786987
135556.196,0.005393363535404205,-0.0019202382536605,-0.014996590092778206,0.037299107760190964,-0.02070552483201027,1.0009090900421143,-0.06569869816303253,0.1329757273197174,0.07311873883008957,20,0.0,0.0,162,0.05114520713686943,-0.034320998936891556,0.14952407777309418,-0.005624394863843918,-0.0014232101384550333,-0.0017265022033825517,0.9999817609786987
135558.225,0.005826854147017002,-0.001989818876609206,-0.014800144359469414,0.037658728659152985,-0.02064136229455471,1.0003637075424194,-0.207099050283432,-0.03885579854249954,0.08892160654067993,20,0.0,0.0,162,0.051088396459817886,-0.03450124338269234,0.149486243724823,-0.0049232132732868195,-0.0014091202756389976,-0.002090715104714036,0.9999847412109375
135560.159,0.005585523787885904,-0.0018449138151481748,-0.0032908630091696978,0.03773956745862961,-0.020796339958906174,0.999711811542511,-0.2850876748561859,-0.04715350270271301,0.11180654913187027,20,0.0,0.0,162,0.051088396459817886,-0.03450124338269234,0.149486243724823,-0.0049232132732868195,-0.0014091202756389976,-0.002090715104714036,0.9999847412109375
135562.217,0.005585523787885904,-0.0018449138151481748,-0.0032908630091696978,0.0373956523835659,-0.021004797890782356,0.9992409944534302,-0.14155712723731995,0.12317876517772675,0.07161888480186462,20,0.0,0.0,162,0.051088396459817886,-0.03450124338269234,0.149486243724823,-0.0049232132732868195,-0.0014091202756389976,-0.002090715104714036,0.9999847412109375
135564.119,0.005585523787885904,-0.0018449138151481748,-0.0032908630091696978,0.03716126084327698,-0.02120351232588291,0.9989904761314392,0.009540107101202011,0.11563495546579361,-0.0012965155765414238,20,0.0,0.0,162,0.05106367915868759,-0.034503284841775894,0.1494024246931076,-0.005047069862484932,-0.0014862833777442575,-0.0019529066048562527,0.9999842643737793
135566.1,0.005354051012545824,-0.0017078776145353913,0.007872765883803368,0.037261154502630234,-0.021112192422151566,0.9989333748817444,0.009166553616523743,0.020892024040222168,-0.002671708120033145,20,0.0,0.0,162,0.05106367915868759,-0.034503284841775894,0.1494024246931076,-0.005047069862484932,-0.0014862833777442575,-0.0019529066048562527,0.9999842643737793
135568.13,0.005950321909040213,-0.0017949127359315753,0.007935497909784317,0.037498489022254944,-0.020865274593234062,0.998958170413971,0.013150154612958431,0.12656062841415405,0.1111515536904335,20,0.0,0.0,162,0.05108724161982536,-0.03452085331082344,0.14942586421966553,-0.004887519869953394,-0.001455864286981523,-0.0020305532962083817,0.9999849796295166
135570.072,0.005689595360308886,-0.0016434992430731654,0.0203985758125782,0.037470173090696335,-0.020689794793725014,0.9991776943206787,-0.047243162989616394,0.17919592559337616,0.2798185646533966,20,0.0,0.0,162,0.05108724161982536,-0.03452085331082344,0.14942586421966553,-0.004887519869953394,-0.001455864286981523,-0.0020305532962083817,0.9999849796295166
135572.113,0.004684912972152233,-0.0014474809868261218,0.020391365513205528,0.037315767258405685,-0.020426692441105843,0.9995912313461304,-0.1599920243024826,0.0800604298710823,0.37567219138145447,20,0.0,0.0,162,0.05108724161982536,-0.03452085331082344,0.14942586421966553,-0.004887519869953394,-0.001455864286981523,-0.0020305532962083817,0.9999849796295166
135574.023,0.005673051346093416,-0.0020428220741450787,-0.02119344472885132,0.03736338019371033,-0.02022857405245304,1.0002087354660034,-0.3269945979118347,0.09972203522920609,0.29390236735343933,20,0.0,0.0,162,0.05115156248211861,-0.0343267023563385,0.1496410220861435,-0.005549452733248472,-0.0013405490899458528,-0.001661738846451044,0.9999823570251465
135576.015,0.005465603433549404,-0.0018974347040057182,-0.011075614020228386,0.038005996495485306,-0.020965110510587692,1.0011358261108398,-0.31025683879852295,0.280033677816391,-0.5458605885505676,20,0.0,0.0,162,0.05115156248211861,-0.0343267023563385,0.1496410220861435,-0.005549452733248472,-0.0013405490899458528,-0.001661738846451044,0.9999823570251465
135578.035,0.006046903785318136,-0.0019568954594433308,-0.011039800941944122,0.038904208689928055,-0.022751735523343086,1.0020606517791748,0.027250170707702637,0.5011658072471619,-2.609407901763916,20,0.0,0.0,162,0.05115156248211861,-0.0343267023563385,0.1496410220861435,-0.005549452733248472,-0.0013405490899458528,-0.001661738846451044,0.9999823570251465
135579.968,0.006046903785318136,-0.0019568954594433308,-0.011039800941944122,0.04082748666405678,-0.02578364871442318,1.0023149251937866,0.17074230313301086,0.6755809783935547,-6.129505634307861,20,0.0,0.0,162,0.05112442374229431,-0.03438336402177811,0.1495267152786255,-0.0054212394170463085,-0.0014540303964167833,-0.0017812671139836311,0.9999827146530151
135582.019,0.005806014407426119,-0.0017980271950364113,0.0004296250408515334,0.04453529044985771,-0.028722982853651047,1.0018750429153442,-0.20123061537742615,0.782051146030426,-10.360130310058594,20,0.0,0.0,162,0.05112442374229431,-0.03438336402177811,0.1495267152786255,-0.0054212394170463085,-0.0014540303964167833,-0.0017812671139836311,0.9999827146530151
135583.931,0.005806014407426119,-0.0017980271950364113,0.0004296250408515334,0.05014651268720627,-0.03164541721343994,1.000959873199463,-0.7355837821960449,1.133811116218567,-14.045391082763672,20,0.0,0.0,162,0.05112442374229431,-0.03438336402177811,0.1495267152786255,-0.0054212394170463085,-0.0014540303964167833,-0.0017812671139836311,0.9999827146530151
135585.91,0.005806014407426119,-0.0017980271950364113,0.0004296250408515334,0.05694722756743431,-0.03501420095562935,0.9993941187858582,-1.0907492637634277,1.6201465129852295,-16.664783477783203,20,0.0,0.0,162,0.051039595156908035,-0.03455547243356705,0.14932753145694733,-0.004805354867130518,-0.0015524782938882709,-0.0021693240851163864,0.9999849796295166
135587.941,0.006856969557702541,-0.00239015044644475,0.011805478483438492,0.06282723695039749,-0.03598520904779434,0.9973908066749573,-1.1807129383087158,1.9089070558547974,-18.259031295776367,20,0.0,0.0,162,0.051039595156908035,-0.03455547243356705,0.14932753145694733,-0.004805354867130518,-0.0015524782938882709,-0.0021693240851163864,0.9999849796295166
135589.893,0.006856969557702541,-0.00239015044644475,0.011805478483438492,0.06597493588924408,-0.03383691608905792,0.9946414828300476,-1.1003810167312622,2.0238680839538574,-18.77004051208496,20,0.0,0.0,162,0.05107671394944191,-0.034517254680395126,0.14933301508426666,-0.004893842618912458,-0.001493407879024744,-0.002251897705718875,0.9999844431877136
135591.926,0.006856969557702541,-0.00239015044644475,0.011805478483438492,0.0670541375875473,-0.031162289902567863,0.9920792579650879,-0.8861962556838989,2.260753870010376,-18.130901336669922,20,0.0,0.0,162,0.05107671394944191,-0.034517254680395126,0.14933301508426666,-0.004893842618912458,-0.001493407879024744,-0.002251897705718875,0.9999844431877136
135593.835,0.007768256589770317,-0.0022648910526186228,-0.01815958134829998,0.068315289914608,-0.028639022260904312,0.9900349378585815,-0.7568168044090271,2.628084897994995,-16.22913360595703,20,0.0,0.0,162,0.05107671394944191,-0.034517254680395126,0.14933301508426666,-0.004893842618912458,-0.001493407879024744,-0.002251897705718875,0.9999844431877136
135595.815,0.007768256589770317,-0.0022648910526186228,-0.01815958134829998,0.07042016834020615,-0.026527639478445053,0.9884099960327148,-0.5578069090843201,3.1702730655670166,-12.77612018585205,20,0.0,0.0,162,0.05115634948015213,-0.034348588436841965,0.14948008954524994,-0.005624830257147551,-0.0012824449222534895,-0.0018695221515372396,0.999981701374054
135597.845,0.011342840269207954,-0.0034200060181319714,-0.00860225036740303,0.07158037275075912,-0.023713355883955956,0.9872615933418274,-0.2297586053609848,3.7661092281341553,-7.707218170166016,20,0.0,0.0,162,0.05115634948015213,-0.034348588436841965,0.14948008954524994,-0.005624830257147551,-0.0012824449222534895,-0.0018695221515372396,0.999981701374054
135599.778,0.011342840269207954,-0.0034200060181319714,-0.00860225036740303,0.07189581543207169,-0.01973673515021801,0.986425518989563,0.09504953771829605,4.02773904800415,-0.9996057748794556,20,0.0,0.0,162,0.05115634948015213,-0.034348588436841965,0.14948008954524994,-0.005624830257147551,-0.0012824449222534895,-0.0018695221515372396,0.999981701374054
135601.842,0.011342840269207954,-0.0034200060181319714,-0.00860225036740303,0.07193010300397873,-0.01549826841801405,0.9862433075904846,0.5847216248512268,4.190174579620361,6.939741134643555,20,0.0,0.0,162,0.051292601972818375,-0.034346044063568115,0.14956988394260406,-0.005466538015753031,-0.00099608872551471,-0.0018310807645320892,0.9999829530715942
135603.741,0.011091109365224838,-0.003260898869484663,0.0030468464829027653,0.06706629693508148,-0.009053056128323078,0.9870943427085876,1.128739356994629,4.318441867828369,15.983060836791992,20,0.0,0.0,162,0.051292601972818375,-0.034346044063568115,0.14956988394260406,-0.005466538015753031,-0.00099608872551471,-0.0018310807645320892,0.9999829530715942
135605.721,0.011091109365224838,-0.003260898869484663,0.0030468464829027653,0.05637374520301819,-0.0022128841374069452,0.9894441366195679,1.6871267557144165,4.294660568237305,24.87734603881836,20,0.0,0.0,162,0.051292601972818375,-0.034346044063568115,0.14956988394260406,-0.005466538015753031,-0.00099608872551471,-0.0018310807645320892,0.9999829530715942
135607.75,0.011091109365224838,-0.003260898869484663,0.0030468464829027653,0.0397767536342144,0.002142805140465498,0.9929865002632141,2.0115458965301514,3.824901819229126,30.852014541625977,20,0.0,0.0,162,0.05133131891489029,-0.034330759197473526,0.14971834421157837,-0.005481851287186146,-0.0008840028312988579,-0.0017580644926056266,0.9999831318855286
135609.693,0.00725860008969903,-0.001058354158885777,0.014726191759109497,0.01486557349562645,0.003946129232645035,0.9974585771560669,1.9723217487335205,2.8211474418640137,31.74089241027832,20,0.0,0.0,162,0.05133131891489029,-0.034330759197473526,0.14971834421157837,-0.005481851287186146,-0.0008840028312988579,-0.0017580644926056266,0.9999831318855286
135611.741,0.007367373909801245,-0.0015209870180115104,0.014733508229255676,-0.01381016243249178,0.0013364284532144666,1.0017472505569458,1.6829051971435547,1.5460928678512573,26.945968627929688,20,0.0,0.0,162,0.051306840032339096,-0.03435339778661728,0.14960666000843048,-0.0054725222289562225,-0.0009057401330210268,-0.0017910307506099343,0.999983012676239
135613.646,0.008176663890480995,-0.0019814164843410254,-0.016548587009310722,-0.034943826496601105,-0.006245274096727371,1.0049079656600952,1.2586665153503418,0.6114696264266968,18.41707992553711,20,0.0,0.0,162,0.051306840032339096,-0.03435339778661728,0.14960666000843048,-0.0054725222289562225,-0.0009057401330210268,-0.0017910307506099343,0.999983012676239
135615.627,0.008176663890480995,-0.0019814164843410254,-0.016548587009310722,-0.04697998985648155,-0.013085183687508106,1.006901741027832,0.7841888070106506,0.3171995282173157,10.46866512298584,20,0.0,0.0,162,0.051306840032339096,-0.03435339778661728,0.14960666000843048,-0.0054725222289562225,-0.0009057401330210268,-0.0017910307506099343,0.999983012676239
135617.656,0.00485070887953043,2.4379274691455066e-05,-0.016578132286667824,-0.05212876945734024,-0.017279712483286858,1.0092402696609497,0.25739389657974243,0.12818555533885956,6.351037502288818,20,0.0,0.0,162,0.05137202888727188,-0.034349892288446426,0.14969146251678467,-0.0054518794640898705,-0.0007988450233824551,-0.0015961998142302036,0.999983549118042
135619.598,0.004577510990202427,0.00020542534184642136,-0.004685922991484404,-0.0483754500746727,-0.02244930900633335,1.0120105743408203,-0.029404068365693092,-0.384137898683548,5.096038818359375,20,0.0,0.0,162,0.05137202888727188,-0.034349892288446426,0.14969146251678467,-0.0054518794640898705,-0.0007988450233824551,-0.0015961998142302036,0.999983549118042
135621.639,0.004577510990202427,0.00020542534184642136,-0.004685922991484404,-0.03536559268832207,-0.028443796560168266,1.0143465995788574,0.013126824051141739,-1.1846399307250977,3.19704008102417,20,0.0,0.0,162,0.05137202888727188,-0.034349892288446426,0.14969146251678467,-0.0054518794640898705,-0.0007988450233824551,-0.0015961998142302036,0.999983549118042
135623.551,0.004577510990202427,0.00020542534184642136,-0.004685922991484404,-0.017650887370109558,-0.02973647601902485,1.0149478912353516,-0.07817951589822769,-1.6858282089233398,1.5712682008743286,20,0.0,0.0,162,0.05120331048965454,-0.03450719267129898,0.14942055940628052,-0.005002141930162907,-0.0010789160151034594,-0.001873245113529265,0.9999852180480957
135625.537,0.004309978801757097,0.00035898681380786,0.006823541130870581,-0.002143725287169218,-0.03171242028474808,1.014349102973938,-0.20648518204689026,-1.6308751106262207,2.2911598682403564,20,0.0,0.0,162,0.05120331048965454,-0.03450719267129898,0.14942055940628052,-0.005002141930162907,-0.0010789160151034594,-0.001873245113529265,0.9999852180480957
135627.569,0.0011869097361341119,0.0023234833497554064,0.007974592037498951,0.01136808656156063,-0.0356198288500309,1.012743592262268,-0.21361227333545685,-1.533183217048645,2.3632044792175293,20,0.0,0.0,162,0.05120331048965454,-0.03450719267129898,0.14942055940628052,-0.005002141930162907,-0.0010789160151034594,-0.001873245113529265,0.9999852180480957
135629.493,0.0011869097361341119,0.0023234833497554064,0.007974592037498951,0.021939370781183243,-0.035482052713632584,1.0102555751800537,-0.17824871838092804,-1.6743757724761963,2.600151538848877,20,0.0,0.0,162,0.051297377794981,-0.034364789724349976,0.1495470404624939,-0.005494365468621254,-0.0008901685941964388,-0.0017961350968107581,0.9999829530715942
135631.551,0.0008877028594724834,0.0025113634765148163,0.020863240584731102,0.02795901708304882,-0.03131852298974991,1.0062901973724365,0.04911157861351967,-1.936861515045166,6.261436462402344,20,0.0,0.0,162,0.051297377794981,-0.034364789724349976,0.1495470404624939,-0.005494365468621254,-0.0008901685941964388,-0.0017961350968107581,0.9999829530715942
135633.467,0.0006541803013533354,0.0017046204302459955,-0.021702101454138756,0.027288882061839104,-0.02449905499815941,1.0017013549804688,0.18540197610855103,-2.134547472000122,11.38314437866211,20,0.0,0.0,162,0.051297377794981,-0.034364789724349976,0.1495470404624939,-0.005494365468621254,-0.0008901685941964388,-0.0017961350968107581,0.9999829530715942
135635.44,0.0006541803013533354,0.0017046204302459955,-0.021702101454138756,0.01772131584584713,-0.020580073818564415,0.9972403049468994,0.5630416870117188,-2.5765793323516846,13.066704750061035,20,0.0,0.0,162,0.05124162510037422,-0.0343780517578125,0.14949581027030945,-0.0054952772334218025,-0.001194119919091463,-0.0016674732323735952,0.9999828338623047
135637.467,-0.0025182384997606277,0.00378103437833488,-0.010691172443330288,0.00502448296174407,-0.02323252521455288,0.9943398237228394,0.9455987215042114,-3.457157611846924,8.104384422302246,20,0.0,0.0,162,0.05124162510037422,-0.0343780517578125,0.14949581027030945,-0.0054952772334218025,-0.001194119919091463,-0.0016674732323735952,0.9999828338623047
135639.402,-0.0025182384997606277,0.00378103437833488,-0.010691172443330288,-0.00024616331211291254,-0.026157936081290245,0.9922257661819458,0.6128911375999451,-3.781208038330078,-0.0010559828951954842,20,0.0,0.0,162,0.051200710237026215,-0.03437789902091026,0.14954304695129395,-0.005364520940929651,-0.0011442387476563454,-0.001980145461857319,0.9999830722808838
135641.468,-0.0027925646863877773,0.003958167973905802,0.0011177490232512355,0.004335283301770687,-0.027219688519835472,0.9909056425094604,-0.08469492942094803,-3.076855421066284,-4.602136611938477,20,0.0,0.0,162,0.051200710237026215,-0.03437789902091026,0.14954304695129395,-0.005364520940929651,-0.0011442387476563454,-0.001980145461857319,0.9999830722808838
135643.362,-0.0027925646863877773,0.003958167973905802,0.0011177490232512355,0.014902498573064804,-0.027200588956475258,0.9907834529876709,-0.5824622511863708,-2.4896247386932373,-5.491988182067871,20,0.0,0.0,162,0.051200710237026215,-0.03437789902091026,0.14954304695129395,-0.005364520940929651,-0.0011442387476563454,-0.001980145461857319,0.9999830722808838
135645.343,-0.0027925646863877773,0.003958167973905802,0.0011177490232512355,0.027520976960659027,-0.02619265764951706,0.9918015599250793,-0.5248230695724487,-2.897226572036743,-6.506832599639893,20,0.0,0.0,162,0.05108315125107765,-0.03454532101750374,0.1493668258190155,-0.004900021478533745,-0.0014141271822154522,-0.0019521972863003612,0.9999851584434509
135647.373,-0.00611401442438364,0.0061535160057246685,0.011615448631346226,0.0367855466902256,-0.024843081831932068,0.9934071898460388,-0.42395737767219543,-3.7381081581115723,-7.648771286010742,20,0.0,0.0,162,0.05108315125107765,-0.03454532101750374,0.1493668258190155,-0.004900021478533745,-0.0014141271822154522,-0.0019521972863003612,0.9999851584434509
135649.305,-0.00611401442438364,0.0061535160057246685,0.011615448631346226,0.03710433468222618,-0.023085743188858032,0.9955048561096191,-0.6556365489959717,-4.117771148681641,-7.546781539916992,20,0.0,0.0,162,0.05108315125107765,-0.03454532101750374,0.1493668258190155,-0.004900021478533745,-0.0014141271822154522,-0.0019521972863003612,0.9999851584434509
135651.36,-0.00611401442438364,0.0061535160057246685,0.011615448631346226,0.03303184732794762,-0.022300876677036285,0.9973636865615845,-0.8754702806472778,-3.8219382762908936,-7.788060665130615,20,0.0,0.0,162,0.051046717911958694,-0.034565091133117676,0.14932823181152344,-0.004789333324879408,-0.0015552183613181114,-0.0021973028779029846,0.9999849200248718
135653.272,-0.00611401442438364,0.0061535160057246685,0.011615448631346226,0.03305985778570175,-0.02254413068294525,0.9982672333717346,-0.9513145089149475,-3.1397769451141357,-10.119791984558105,20,0.0,0.0,162,0.051046717911958694,-0.034565091133117676,0.14932823181152344,-0.004789333324879408,-0.0015552183613181114,-0.0021973028779029846,0.9999849200248718
135655.258,-0.006598351523280144,0.005412702448666096,-0.01936175860464573,0.03716205060482025,-0.020602015778422356,0.9980095028877258,-0.9746759533882141,-2.509073495864868,-13.83444595336914,20,0.0,0.0,162,0.051046717911958694,-0.034565091133117676,0.14932823181152344,-0.004789333324879408,-0.0015552183613181114,-0.0021973028779029846,0.9999849200248718
135657.277,-0.006598351523280144,0.005412702448666096,-0.01936175860464573,0.039440035820007324,-0.022410819306969643,0.9982797503471375,-0.851839005947113,-2.314525604248047,-18.057409286499023,20,0.0,0.0,162,0.05110780894756317,-0.03440582752227783,0.14947018027305603,-0.0053887940011918545,-0.0015002205036580563,-0.001930218655616045,0.9999825358390808
135659.211,-0.009786680340766907,0.00757860392332077,-0.009248082526028156,0.042545899748802185,-0.027546599507331848,0.9989594221115112,-0.9924304485321045,-2.3380401134490967,-22.49203109741211,20,0.0,0.0,162,0.05110780894756317,-0.03440582752227783,0.14947018027305603,-0.0053887940011918545,-0.0015002205036580563,-0.001930218655616045,0.9999825358390808
135661.261,-0.009786680340766907,0.00757860392332077,-0.009248082526028156,0.05163219943642616,-0.02788984775543213,0.9989110827445984,-1.6462711095809937,-1.9012943506240845,-22.71388816833496,20,0.0,0.0,162,0.05104673653841019,-0.03452126309275627,0.14942319691181183,-0.004895046819001436,-0.0014915716601535678,-0.002038703765720129,0.999984860420227
135663.172,-0.010072233155369759,0.007740703411400318,0.0028396209236234426,0.06705691665410995,-0.020170237869024277,0.9982295036315918,-2.0586960315704346,-1.2306543588638306,-14.282890319824219,20,0.0,0.0,162,0.05104673653841019,-0.03452126309275627,0.14942319691181183,-0.004895046819001436,-0.0014915716601535678,-0.002038703765720129,0.999984860420227
135665.154,-0.010072233155369759,0.007740703411400318,0.0028396209236234426,0.0856386199593544,-0.009039690718054771,0.9978586435317993,-1.508550763130188,-0.8320011496543884,-1.8370916843414307,20,0.0,0.0,162,0.05104673653841019,-0.03452126309275627,0.14942319691181183,-0.004895046819001436,-0.0014915716601535678,-0.002038703765720129,0.999984860420227
135667.183,-0.010072233155369759,0.007740703411400318,0.0028396209236234426,0.10091250389814377,-0.0035202009603381157,0.9984571933746338,-0.20388251543045044,-0.45644304156303406,6.39207649230957,20,0.0,0.0,162,0.051094021648168564,-0.034389909356832504,0.14958712458610535,-0.0053759412840008736,-0.001411856384947896,-0.0020641859155148268,0.999982476234436
135669.116,-0.013046449981629848,0.009730556979775429,0.016150465235114098,0.10624472051858902,-0.007489099632948637,0.9987286329269409,0.7570377588272095,-0.10519325733184814,8.198378562927246,20,0.0,0.0,162,0.051094021648168564,-0.034389909356832504,0.14958712458610535,-0.0053759412840008736,-0.001411856384947896,-0.0020641859155148268,0.999982476234436
135671.173,-0.013046449981629848,0.009730556979775429,0.016150465235114098,0.09550507366657257,-0.014357821084558964,0.9976509213447571,0.9287974238395691,0.03766081854701042,7.828272342681885,20,0.0,0.0,162,0.051094021648168564,-0.034389909356832504,0.14958712458610535,-0.0053759412840008736,-0.001411856384947896,-0.0020641859155148268,0.999982476234436
135673.083,-0.013046449981629848,0.009730556979775429,0.016150465235114098,0.06506838649511337,-0.01822669431567192,0.9969613552093506,0.5297327637672424,0.5120698809623718,9.597272872924805,20,0.0,0.0,162,0.05108816176652908,-0.03434335067868233,0.1496317982673645,-0.005436362233012915,-0.0014388666022568941,-0.0018755330238491297,0.999982476234436
135675.065,-0.010441653430461884,0.008248429745435715,-0.015946311876177788,0.03732307627797127,-0.019451657310128212,0.9961960911750793,0.06936411559581757,2.602062225341797,13.31804084777832,20,0.0,0.0,162,0.05108816176652908,-0.03434335067868233,0.1496317982673645,-0.005436362233012915,-0.0014388666022568941,-0.0018755330238491297,0.999982476234436
135677.098,-0.010441653430461884,0.008248429745435715,-0.015946311876177788,0.034641582518815994,-0.012541483156383038,0.9956222176551819,0.002986389212310314,3.9090301990509033,16.45049285888672,20,0.0,0.0,162,0.05108816176652908,-0.03434335067868233,0.1496317982673645,-0.005436362233012915,-0.0014388666022568941,-0.0018755330238491297,0.999982476234436
135679.025,-0.013106989674270153,0.01004853192716837,-0.016200028359889984,0.02239586040377617,-0.0001290194340981543,0.9948031306266785,0.3001149594783783,-1.0008270740509033,19.397396087646484,20,0.0,0.0,162,0.05110795050859451,-0.034343790262937546,0.14964738488197327,-0.005415784195065498,-0.0015792299527674913,-0.0018617050955072045,0.9999824166297913
135681.084,-0.013427159748971462,0.01023951917886734,-0.003889641026034951,-0.009869076311588287,-0.0027337735518813133,0.9956345558166504,0.5118144154548645,-5.768148422241211,17.073434829711914,20,0.0,0.0,162,0.05110795050859451,-0.034343790262937546,0.14964738488197327,-0.005415784195065498,-0.0015792299527674913,-0.0018617050955072045,0.9999824166297913
135682.991,-0.013427159748971462,0.01023951917886734,-0.003889641026034951,-0.03455350175499916,-0.019065089523792267,0.9989909529685974,-0.07532200217247009,-2.375272274017334,1.1394405364990234,20,0.0,0.0,162,0.05110795050859451,-0.034343790262937546,0.14964738488197327,-0.005415784195065498,-0.0015792299527674913,-0.0018617050955072045,0.9999824166297913
135684.963,-0.013427159748971462,0.01023951917886734,-0.003889641026034951,-0.04281311854720116,-0.03433782979846001,0.999545693397522,-1.4552817344665527,0.7901833057403564,-22.701656341552734,20,0.0,0.0,162,0.05102469027042389,-0.03439951688051224,0.14945057034492493,-0.005351926200091839,-0.0017027425346896052,-0.001994061516597867,0.9999822378158569
135687.001,-0.013736244291067123,0.010414859279990196,0.008024660870432854,-0.01936034858226776,-0.043868571519851685,0.9991863965988159,-2.4141993522644043,-2.669877290725708,-36.64463424682617,20,0.0,0.0,162,0.05102469027042389,-0.03439951688051224,0.14945057034492493,-0.005351926200091839,-0.0017027425346896052,-0.001994061516597867,0.9999822378158569
135688.927,-0.016234690323472023,0.012171532958745956,0.007668379694223404,0.049002185463905334,-0.03897770494222641,0.9972586631774902,-2.2397096157073975,-4.229303359985352,-25.924789428710938,20,0.0,0.0,162,0.05103597790002823,-0.03431739658117294,0.14961563050746918,-0.005571465473622084,-0.0017818061169236898,-0.0017868466675281525,0.9999813437461853
135690.98,-0.01657656580209732,0.012365312315523624,0.021069206297397614,0.119774729013443,-0.01992395706474781,0.9928404092788696,-0.9602961540222168,1.1994082927703857,4.799551963806152,20,0.0,0.0,162,0.05103597790002823,-0.03431739658117294,0.14961563050746918,-0.005571465473622084,-0.0017818061169236898,-0.0017868466675281525,0.9999813437461853
135692.897,-0.01657656580209732,0.012365312315523624,0.021069206297397614,0.13096120953559875,-0.0036458491813391447,0.991319477558136,0.4555649161338806,5.268203258514404,31.613035202026367,20,0.0,0.0,162,0.05103597790002823,-0.03431739658117294,0.14961563050746918,-0.005571465473622084,-0.0017818061169236898,-0.0017868466675281525,0.9999813437461853
135694.88,-0.010604985989630222,0.010710065253078938,-0.02253112569451332,0.07796680927276611,-0.006358236540108919,0.9933589696884155,1.0792537927627563,1.6281449794769287,31.925323486328125,20,0.0,0.0,162,0.05102992057800293,-0.03435521572828293,0.14961093664169312,-0.005503448192030191,-0.0018050615908578038,-0.0017431792803108692,0.9999817609786987
135696.903,-0.010937816463410854,0.010885904543101788,-0.011773361824452877,0.013129050843417645,-0.02185801789164543,0.9967138171195984,0.764705240726471,-5.046994209289551,7.336088180541992,20,0.0,0.0,162,0.05102992057800293,-0.03435521572828293,0.14961093664169312,-0.005503448192030191,-0.0018050615908578038,-0.0017431792803108692,0.9999817609786987
135698.832,-0.013494724407792091,0.012611184269189835,-0.012312605045735836,-0.00499641103670001,-0.0324929840862751,0.9962533712387085,-0.16548392176628113,-7.644894123077393,-16.438068389892578,20,0.0,0.0,162,0.05102992057800293,-0.03435521572828293,0.14961093664169312,-0.005503448192030191,-0.0018050615908578038,-0.0017431792803108692,0.9999817609786987
135700.882,-0.013494724407792091,0.012611184269189835,-0.012312605045735836,0.028738129884004593,-0.02947578765451908,0.9926009774208069,-0.6561625003814697,-1.9366966485977173,-15.958003044128418,20,0.0,0.0,162,0.05099865049123764,-0.03435565158724785,0.1495065987110138,-0.005508603993803263,-0.001810928457416594,-0.0019515524618327618,0.9999812841415405
135702.794,-0.013864758424460888,0.012798220850527287,-4.368881491245702e-05,0.06665361672639847,-0.017723703756928444,0.9881747961044312,-0.7394791841506958,8.40047550201416,6.760944366455078,20,0.0,0.0,162,0.05099865049123764,-0.03435565158724785,0.1495065987110138,-0.005508603993803263,-0.001810928457416594,-0.0019515524618327618,0.9999812841415405
135704.786,-0.013864758424460888,0.012798220850527287,-4.368881491245702e-05,0.06966112554073334,-0.012167203240096569,0.9898343086242676,-0.586643397808075,11.040933609008789,23.43279457092285,20,0.0,0.0,162,0.05099865049123764,-0.03435565158724785,0.1495065987110138,-0.005508603993803263,-0.001810928457416594,-0.0019515524618327618,0.9999812841415405
135706.805,-0.013864758424460888,0.012798220850527287,-4.368881491245702e-05,0.052434079349040985,-0.016643481329083443,0.9952094554901123,-0.4683791697025299,-0.579028844833374,14.097725868225098,20,0.0,0.0,162,0.05101422592997551,-0.03439036011695862,0.14947639405727386,-0.005474712699651718,-0.0017053831834346056,-0.001871610409580171,0.9999818801879883
135708.748,-0.0166811291128397,0.014678364619612694,0.011067417450249195,0.053106583654880524,-0.020919470116496086,0.9991304874420166,-0.3042961061000824,-11.656062126159668,-6.075337886810303,20,0.0,0.0,162,0.05101422592997551,-0.03439036011695862,0.14947639405727386,-0.005474712699651718,-0.0017053831834346056,-0.001871610409580171,0.9999818801879883
135710.789,-0.0166811291128397,0.014678364619612694,0.011067417450249195,0.07691916823387146,-0.015289653092622757,0.9990038275718689,0.07648167014122009,-5.750119209289551,-7.7465691566467285,20,0.0,0.0,162,0.05101422592997551,-0.03439036011695862,0.14947639405727386,-0.005474712699651718,-0.0017053831834346056,-0.001871610409580171,0.9999818801879883
135712.707,-0.0166811291128397,0.014678364619612694,0.011067417450249195,0.08408612757921219,-0.006275291088968515,0.9980304837226868,0.717692494392395,6.975241661071777,14.032146453857422,20,0.0,0.0,162,0.05101276934146881,-0.03442857414484024,0.14945581555366516,-0.005488361231982708,-0.0017961388221010566,-0.0018200575141236186,0.999981701374054
135714.683,-0.011346022598445415,0.013599629513919353,0.025197463110089302,0.06807125359773636,-0.009310771711170673,0.9992455840110779,1.3355302810668945,7.840674877166748,33.54965591430664,20,0.0,0.0,162,0.05101276934146881,-0.03442857414484024,0.14945581555366516,-0.005488361231982708,-0.0017961388221010566,-0.0018200575141236186,0.999981701374054
135716.712,-0.009710976853966713,0.012759407050907612,-0.020088937133550644,0.033775694668293,-0.018682951107621193,1.004607081413269,1.0846939086914062,-0.891539454460144,30.4847469329834,20,0.0,0.0,162,0.051123201847076416,-0.03445808216929436,0.14945168793201447,-0.005873434245586395,-0.0018279948271811008,-0.0015781840775161982,0.9999799132347107
135718.655,-0.012594446539878845,0.014651112258434296,-0.007619804237037897,-0.012095496989786625,-0.02606947347521782,1.0085188150405884,0.2137049436569214,-5.47269344329834,10.24506950378418,20,0.0,0.0,162,0.051123201847076416,-0.03445808216929436,0.14945168793201447,-0.005873434245586395,-0.0018279948271811008,-0.0015781840775161982,0.9999799132347107
135720.705,-0.012594446539878845,0.014651112258434296,-0.007619804237037897,-0.03079586662352085,-0.029630295932292938,1.0109931230545044,-0.6414873600006104,-2.598046064376831,-8.620133399963379,20,0.0,0.0,162,0.051123201847076416,-0.03445808216929436,0.14945168793201447,-0.005873434245586395,-0.0018279948271811008,-0.0015781840775161982,0.9999799132347107
135722.607,-0.012594446539878845,0.014651112258434296,-0.007619804237037897,-0.013870385475456715,-0.03265390172600746,1.0110280513763428,-1.4508050680160522,1.3876243829727173,-15.217108726501465,20,0.0,0.0,162,0.05094173178076744,-0.034569911658763885,0.14925892651081085,-0.00500378618016839,-0.001999166328459978,-0.002059623599052429,0.9999834299087524
135724.588,-0.013001070357859135,0.014816856011748314,0.004532434977591038,0.02902316115796566,-0.03754231333732605,1.00663161277771,-2.135584831237793,3.00482439994812,-15.569917678833008,20,0.0,0.0,162,0.05094173178076744,-0.034569911658763885,0.14925892651081085,-0.00500378618016839,-0.001999166328459978,-0.002059623599052429,0.9999834299087524
135726.618,-0.013001070357859135,0.014816856011748314,0.004532434977591038,0.08130680024623871,-0.0382736399769783,1.0008288621902466,-2.5934224128723145,3.3683054447174072,-16.281658172607422,20,0.0,0.0,162,0.05094173178076744,-0.034569911658763885,0.14925892651081085,-0.00500378618016839,-0.001999166328459978,-0.002059623599052429,0.9999834299087524
135728.557,-0.015392804518342018,0.01649339869618416,0.005291793495416641,0.1000637337565422,-0.028545843437314034,0.993175745010376,-2.6764023303985596,1.5893017053604126,-13.04139232635498,20,0.0,0.0,162,0.05105559155344963,-0.034412652254104614,0.1493668407201767,-0.0055818213149905205,-0.0017267417861148715,-0.0017406218685209751,0.9999814033508301
135730.611,-0.015826337039470673,0.016680365428328514,0.018870873376727104,0.08393552899360657,-0.0009875084506347775,0.9894125461578369,-2.6354451179504395,-0.7947536706924438,2.251528263092041,20,0.0,0.0,162,0.05105559155344963,-0.034412652254104614,0.1493668407201767,-0.0055818213149905205,-0.0017267417861148715,-0.0017406218685209751,0.9999814033508301
135732.521,-0.015826337039470673,0.016680365428328514,0.018870873376727104,0.027815023437142372,0.04151708260178566,0.9905346035957336,-3.415921926498413,-1.532895803451538,24.30734634399414,20,0.0,0.0,162,0.05105559155344963,-0.034412652254104614,0.1493668407201767,-0.0055818213149905205,-0.0017267417861148715,-0.0017406218685209751,0.9999814033508301
135734.492,-0.015826337039470673,0.016680365428328514,0.018870873376727104,-0.09949225187301636,0.0688316598534584,0.9964258074760437,-4.425410747528076,-5.375669479370117,35.811397552490234,20,0.0,0.0,162,0.05098358914256096,-0.03458889573812485,0.14919354021549225,-0.005317507777363062,-0.002134055597707629,-0.0018636665772646666,0.9999818205833435
135736.518,-0.013536257669329643,0.015793217346072197,-0.013974432833492756,-0.2194623500108719,0.0831524208188057,1.001272201538086,-5.640858173370361,-10.037633895874023,26.66226577758789,20,0.0,0.0,162,0.05098358914256096,-0.03458889573812485,0.14919354021549225,-0.005317507777363062,-0.002134055597707629,-0.0018636665772646666,0.9999818205833435
135738.456,-0.01581764407455921,0.017396876588463783,-0.014562585391104221,-0.21393445134162903,0.14169660210609436,0.9995940327644348,-8.875388145446777,-6.537232398986816,-1.3723639249801636,20,0.0,0.0,162,0.050843384116888046,-0.034487076103687286,0.14924629032611847,-0.0052688755095005035,-0.0022045003715902567,-0.0020287465304136276,0.9999816417694092
135740.506,-0.01621735654771328,0.017552467063069344,-0.0022515966556966305,-0.14751358330249786,0.23980550467967987,0.999652087688446,-13.082976341247559,-0.7752155661582947,-28.04615020751953,20,0.0,0.0,162,0.050843384116888046,-0.034487076103687286,0.14924629032611847,-0.0052688755095005035,-0.0022045003715902567,-0.0020287465304136276,0.9999816417694092
135742.418,-0.01621735654771328,0.017552467063069344,-0.0022515966556966305,-0.0917162075638771,0.31747400760650635,1.0094234943389893,-15.40267562866211,-4.786489009857178,-25.247514724731445,20,0.0,0.0,162,0.050843384116888046,-0.034487076103687286,0.14924629032611847,-0.0052688755095005035,-0.0022045003715902567,-0.0020287465304136276,0.9999816417694092
135744.397,-0.01621735654771328,0.017552467063069344,-0.0022515966556966305,-0.030185630545020103,0.3306506872177124,1.0244965553283691,-15.749260902404785,-14.130376815795898,3.618337869644165,20,0.0,0.0,162,0.050825975835323334,-0.03417219966650009,0.14949405193328857,-0.006425892002880573,-0.0023685675114393234,-0.0017047355649992824,0.9999750852584839
135746.426,-0.016603093594312668,0.017731569707393646,0.0097152478992939,0.01573553867638111,0.28629225492477417,1.0506482124328613,-15.183480262756348,-13.502544403076172,24.098182678222656,20,0.0,0.0,162,0.050825975835323334,-0.03417219966650009,0.14949405193328857,-0.006425892002880573,-0.0023685675114393234,-0.0017047355649992824,0.9999750852584839
135748.362,-0.018706219270825386,0.019317595288157463,0.01052512414753437,0.01569441147148609,0.2404858022928238,1.0889490842819214,-15.83003044128418,-5.931243419647217,16.686830520629883,20,0.0,0.0,162,0.050825975835323334,-0.03417219966650009,0.14949405193328857,-0.006425892002880573,-0.0023685675114393234,-0.0017047355649992824,0.9999750852584839
135750.419,-0.018706219270825386,0.019317595288157463,0.01052512414753437,0.002704689046368003,0.20915086567401886,1.1278202533721924,-17.601259231567383,-8.574216842651367,-6.770937919616699,20,0.0,0.0,162,0.05073890462517738,-0.03377407044172287,0.14956027269363403,-0.007701100781559944,-0.00334552931599319,-0.0012069715885445476,0.9999640583992004
135752.327,-0.01912294328212738,0.019532280042767525,0.023842891678214073,0.01568083092570305,0.16715587675571442,1.1594027280807495,-19.20130729675293,-14.517282485961914,-17.79585075378418,20,0.0,0.0,162,0.05073890462517738,-0.03377407044172287,0.14956027269363403,-0.007701100781559944,-0.00334552931599319,-0.0012069715885445476,0.9999640583992004
135754.307,-0.01912294328212738,0.019532280042767525,0.023842891678214073,0.040910229086875916,0.14939790964126587,1.1787968873977661,-21.481542587280273,-3.6679413318634033,-4.699953556060791,20,0.0,0.0,162,0.05073890462517738,-0.03377407044172287,0.14956027269363403,-0.007701100781559944,-0.00334552931599319,-0.0012069715885445476,0.9999640583992004
135756.33,-0.01912294328212738,0.019532280042767525,0.023842891678214073,0.05072406679391861,0.20642028748989105,1.1910464763641357,-23.73493194580078,12.549455642700195,9.503419876098633,20,0.0,0.0,162,0.05079180747270584,-0.03350179269909859,0.1493503600358963,-0.00917496345937252,-0.0050635868683457375,-0.0015512221725657582,0.9999439716339111
135758.266,-0.023659100756049156,0.02509624883532524,0.0036246704403311014,0.05195806547999382,0.3436659276485443,1.207314133644104,-24.053539276123047,14.847251892089844,8.315778732299805,20,0.0,0.0,162,0.05079180747270584,-0.03350179269909859,0.1493503600358963,-0.00917496345937252,-0.0050635868683457375,-0.0015512221725657582,0.9999439716339111
135760.327,-0.023659100756049156,0.02509624883532524,0.0036246704403311014,0.08369417488574982,0.5476095676422119,1.2497578859329224,-22.226062774658203,8.770127296447754,2.6942992210388184,20,0.0,0.0,162,0.051024582237005234,-0.03282725065946579,0.14998671412467957,-0.010662784799933434,-0.004312738310545683,-0.0010730086360126734,0.9999333024024963
135762.233,-0.024001911282539368,0.025297045707702637,0.015708621591329575,0.15105652809143066,0.7446600794792175,1.3325127363204956,-17.580177307128906,1.6781091690063477,6.678284168243408,20,0.0,0.0,162,0.051024582237005234,-0.03282725065946579,0.14998671412467957,-0.010662784799933434,-0.004312738310545683,-0.0010730086360126734,0.9999333024024963
135764.213,-0.024001911282539368,0.025297045707702637,0.015708621591329575,0.18535232543945312,0.8016116619110107,1.4378502368927002,-8.53253173828125,-3.849388360977173,24.439403533935547,20,0.0,0.0,162,0.051024582237005234,-0.03282725065946579,0.14998671412467957,-0.010662784799933434,-0.004312738310545683,-0.0010730086360126734,0.9999333024024963
135766.237,-0.024001911282539368,0.025297045707702637,0.015708621591329575,0.17449605464935303,0.6709887385368347,1.54213285446167,4.12828254699707,4.26092004776001,49.265438079833984,20,0.0,0.0,162,0.051024582237005234,-0.03282725065946579,0.14998671412467957,-0.010662784799933434,-0.004312738310545683,-0.0010730086360126734,0.9999333024024963
135768.169,-0.02733648382127285,0.028173811733722687,0.046237096190452576,0.14762859046459198,0.4466717541217804,1.565747618675232,16.31862449645996,22.336450576782227,79.23585510253906,20,0.0,0.0,162,0.05154751241207123,-0.033494845032691956,0.15013328194618225,-0.008053785189986229,-0.0030593466944992542,-0.0019087427062913775,0.9999611377716064
135770.22,-0.027686145156621933,0.028291258960962296,0.05962008237838745,0.0883774608373642,0.2204408496618271,1.4801872968673706,21.126922607421875,21.697668075561523,98.71180725097656,20,0.0,0.0,162,0.05154751241207123,-0.033494845032691956,0.15013328194618225,-0.008053785189986229,-0.0030593466944992542,-0.0019087427062913775,0.9999611377716064
135772.131,-0.027686145156621933,0.028291258960962296,0.05962008237838745,0.05843907594680786,0.04182646423578262,1.2938741445541382,16.514902114868164,-3.3847463130950928,76.68403625488281,20,0.0,0.0,162,0.051235806196928024,-0.03240326792001724,0.15036049485206604,-0.009331440553069115,-0.00416147243231535,-0.0017518873792141676,0.9999462962150574
135774.113,-0.028033064678311348,0.028495538979768753,0.07257778942584991,0.10240942239761353,-0.06936383247375488,1.0285395383834839,3.7421247959136963,-15.316412925720215,22.335065841674805,20,0.0,0.0,162,0.051235806196928024,-0.03240326792001724,0.15036049485206604,-0.009331440553069115,-0.00416147243231535,-0.0017518873792141676,0.9999462962150574
135776.142,-0.03214762359857559,0.025608979165554047,0.07288703322410583,0.012829826213419437,-0.17906227707862854,0.7735041379928589,-12.136996269226074,-4.769754886627197,-37.45949172973633,20,0.0,0.0,161,0.051235806196928024,-0.03240326792001724,0.15036049485206604,-0.009331440553069115,-0.00416147243231535,-0.0017518873792141676,0.9999462962150574
135778.076,-0.033749476075172424,0.028029903769493103,0.055833734571933746,-0.18577805161476135,-0.4942484498023987,0.5617204904556274,-19.07254409790039,-6.8765459060668945,-70.82098388671875,20,0.0,0.0,161,0.050868019461631775,-0.03142228722572327,0.1502419114112854,-0.01098725013434887,-0.005789192859083414,-0.002260488923639059,0.9999203681945801
135780.125,-0.03404994308948517,0.028355618938803673,0.06731395423412323,-0.18148572742938995,-1.1830228567123413,0.5046020746231079,-9.768030166625977,-21.234067916870117,-43.67981719970703,20,0.0,0.0,161,0.050868019461631775,-0.03142228722572327,0.1502419114112854,-0.01098725013434887,-0.005789192859083414,-0.002260488923639059,0.9999203681945801
135782.047,-0.03404994308948517,0.028355618938803673,0.06731395423412323,-0.09090656042098999,-2.064081907272339,0.6753711104393005,5.365792274475098,-25.217750549316406,8.973482131958008,20,0.0,0.0,161,0.050868019461631775,-0.03142228722572327,0.1502419114112854,-0.01098725013434887,-0.005789192859083414,-0.002260488923639059,0.9999203681945801
135784.02,-0.03404994308948517,0.028355618938803673,0.06731395423412323,-0.10853873193264008,-2.719017505645752,1.0312390327453613,13.56714153289795,-14.701774597167969,4.971930027008057,20,0.0,0.0,161,0.05065789446234703,-0.031089168041944504,0.150333970785141,-0.011202744208276272,-0.006292003206908703,-0.002708770101889968,0.9999138712882996
135786.048,-0.03434597700834274,0.028691241517663002,0.07847023010253906,-0.15867146849632263,-2.8572874069213867,1.521060585975647,9.812023162841797,-2.9074032306671143,-59.338626861572266,20,0.0,0.0,161,0.05065789446234703,-0.031089168041944504,0.150333970785141,-0.011202744208276272,-0.006292003206908703,-0.002708770101889968,0.9999138712882996
135787.98,-0.03491196408867836,0.030130265280604362,0.052453797310590744,-0.10323645919561386,-2.6114957332611084,2.0377962589263916,1.0099164247512817,-6.358607769012451,-97.93315887451172,20,0.0,0.0,161,0.050724342465400696,-0.031389884650707245,0.15109257400035858,-0.00948362797498703,-0.0054304469376802444,-0.0015716920606791973,0.9999391436576843
135790.035,-0.03521816059947014,0.030429454520344734,0.06486013531684875,0.02328260987997055,-2.2975571155548096,2.6806893348693848,-5.831872463226318,-14.379881858825684,-74.52479553222656,20,0.0,0.0,161,0.050724342465400696,-0.031389884650707245,0.15109257400035858,-0.00948362797498703,-0.0054304469376802444,-0.0015716920606791973,0.9999391436576843
135791.942,-0.03521816059947014,0.030429454520344734,0.06486013531684875,0.06536713987588882,-1.9269133806228638,3.3477845191955566,-15.4596529006958,-15.277290344238281,-35.561920166015625,20,0.0,0.0,161,0.050724342465400696,-0.031389884650707245,0.15109257400035858,-0.00948362797498703,-0.0054304469376802444,-0.0015716920606791973,0.9999391436576843
135793.93,-0.03521816059947014,0.030429454520344734,0.06486013531684875,-0.003933039493858814,-1.7120788097381592,3.5362062454223633,-6.247037410736084,-11.409794807434082,27.749303817749023,20,0.0,0.0,161,0.05025475099682808,-0.03232616186141968,0.1513301432132721,-0.010425213724374771,-0.00677748816087842,-0.001342733739875257,0.9999218583106995
135795.952,-0.03521816059947014,0.030429454520344734,0.06486013531684875,-0.10834170877933502,-2.238945960998535,2.922485828399658,40.40586471557617,-0.9862294793128967,171.93202209472656,20,0.0,9.0,160,0.05025475099682808,-0.03232616186141968,0.1513301432132721,-0.010425213724374771,-0.00677748816087842,-0.001342733739875257,0.9999218583106995
135797.886,-0.04322073608636856,0.04206524416804314,0.2024482786655426,-0.1867489367723465,-3.2368996143341064,1.9402108192443848,75.34284210205078,7.997475624084473,253.41949462890625,20,0.0,9.0,160,0.05025475099682808,-0.03232616186141968,0.1513301432132721,-0.010425213724374771,-0.00677748816087842,-0.001342733739875257,0.9999218583106995
135799.946,-0.04322073608636856,0.04206524416804314,0.2024482786655426,-0.17768335342407227,-3.570272445678711,0.9685481190681458,49.347015380859375,0.414352685213089,66.72093200683594,20,0.0,9.0,160,0.04976741224527359,-0.03441646695137024,0.15375711023807526,-0.010490945540368557,-0.006651242729276419,-0.004294819664210081,0.9999136924743652
135801.848,-0.04353201016783714,0.04206837713718414,0.2138938456773758,-0.04953959584236145,-2.7967987060546875,0.13698309659957886,-14.500503540039062,-16.65852928161621,-229.63343811035156,20,0.0,9.0,160,0.04976741224527359,-0.03441646695137024,0.15375711023807526,-0.010490945540368557,-0.006651242729276419,-0.004294819664210081,0.9999136924743652
135803.829,-0.04353201016783714,0.04206837713718414,0.2138938456773758,0.10951671749353409,-1.6040197610855103,-0.2796398401260376,-54.7042121887207,-13.604900360107422,-300.6629333496094,20,0.0,9.0,160,0.04976741224527359,-0.03441646695137024,0.15375711023807526,-0.010490945540368557,-0.006651242729276419,-0.004294819664210081,0.9999136924743652
135805.858,-0.04353201016783714,0.04206837713718414,0.2138938456773758,0.15138599276542664,-0.5367132425308228,-0.13517354428768158,-63.32434844970703,6.08003568649292,-137.353515625,20,0.0,9.0,160,0.049443405121564865,-0.035778239369392395,0.15447784960269928,-0.0060818372294306755,-0.00997895747423172,0.007709831930696964,0.9999020099639893
135807.794,-0.04487559571862221,0.04351644590497017,0.2014360874891281,0.03783223405480385,0.272490531206131,0.3105106055736542,-81.1444091796875,9.493651390075684,20.228710174560547,20,0.0,9.0,160,0.049443405121564865,-0.035778239369392395,0.15447784960269928,-0.0060818372294306755,-0.00997895747423172,0.007709831930696964,0.9999020099639893
135809.842,-0.04487559571862221,0.04351644590497017,0.2014360874891281,-0.06680993735790253,0.8302534222602844,0.804286003112793,-123.15943908691406,0.8317829966545105,105.44451141357422,20,0.0,9.0,160,0.050111182034015656,-0.03918483853340149,0.1548052430152893,-0.01213931292295456,-0.0053833662532269955,0.008225196972489357,0.9998780488967896
135811.759,-0.04516995698213577,0.04315336421132088,0.21359732747077942,-0.020779436454176903,1.0866961479187012,1.239662766456604,-171.0426483154297,3.1516313552856445,129.5538330078125,20,0.0,9.0,160,0.050111182034015656,-0.03918483853340149,0.1548052430152893,-0.01213931292295456,-0.0053833662532269955,0.008225196972489357,0.9998780488967896
135813.741,-0.04516995698213577,0.04315336421132088,0.21359732747077942,0.20973165333271027,1.0102577209472656,1.5668563842773438,-196.76202392578125,9.156014442443848,40.86281204223633,20,0.0,9.0,160,0.050111182034015656,-0.03918483853340149,0.1548052430152893,-0.01213931292295456,-0.0053833662532269955,0.008225196972489357,0.9998780488967896
135815.764,-0.04516995698213577,0.04315336421132088,0.21359732747077942,0.3118170201778412,0.9924812316894531,1.966883897781372,-197.3220672607422,3.5777361392974854,-95.68315887451172,20,3.0,7.0,158,0.050111182034015656,-0.03918483853340149,0.1548052430152893,-0.01213931292295456,-0.0053833662532269955,0.008225196972489357,0.9998780488967896
135817.697,-0.03444270044565201,0.09854394942522049,0.17646721005439758,0.21188408136367798,1.597998857498169,2.567943572998047,-190.91061401367188,-2.9267868995666504,-175.52081298828125,20,3.0,7.0,158,0.050111182034015656,-0.03918483853340149,0.1548052430152893,-0.01213931292295456,-0.0053833662532269955,0.008225196972489357,0.9998780488967896
135819.747,-0.03444270044565201,0.09854394942522049,0.17646721005439758,0.17173932492733002,2.6873340606689453,3.146045207977295,-175.1449432373047,-0.10901957750320435,-172.63925170898438,20,3.0,7.0,158,0.050111182034015656,-0.03918483853340149,0.1548052430152893,-0.01213931292295456,-0.0053833662532269955,0.008225196972489357,0.9998780488967896
135821.67,-0.03444270044565201,0.09854394942522049,0.17646721005439758,0.15270227193832397,3.3308568000793457,3.291212558746338,-119.05895233154297,4.351592063903809,-57.827022552490234,20,3.0,7.0,158,0.050111182034015656,-0.03918483853340149,0.1548052430152893,-0.01213931292295456,-0.0053833662532269955,0.008225196972489357,0.9998780488967896
135823.639,-0.03444270044565201,0.09854394942522049,0.17646721005439758,0.015817780047655106,2.833035945892334,2.940711259841919,-21.046615600585938,8.372684478759766,138.751708984375,20,3.0,7.0,158,0.049757663160562515,-0.04158599302172661,0.15661312639713287,-0.019840139895677567,-0.006024522706866264,0.0017591495998203754,0.999783456325531
135825.67,-0.0347820445895195,0.09704955667257309,0.1868920773267746,-0.18212483823299408,1.3866385221481323,2.287043571472168,75.87362670898438,15.37219524383545,264.4930419921875,20,3.0,7.0,158,0.049757663160562515,-0.04158599302172661,0.15661312639713287,-0.019840139895677567,-0.006024522706866264,0.0017591495998203754,0.999783456325531
135827.601,-0.04266379028558731,0.11461950093507767,0.36361759901046753,-0.2768215537071228,0.23601511120796204,1.3711520433425903,113.30238342285156,11.812947273254395,169.26333618164062,20,3.0,7.0,158,0.049037523567676544,-0.04393443837761879,0.16023129224777222,-0.035967785865068436,-0.006850592326372862,-0.018910575658082962,0.9991505146026611
135829.652,-0.04338328167796135,0.1111215204000473,0.3863988518714905,-0.023542681708931923,0.34351861476898193,0.27583688497543335,88.27667999267578,-3.3397514820098877,-132.9023895263672,20,3.0,7.0,158,0.049037523567676544,-0.04393443837761879,0.16023129224777222,-0.035967785865068436,-0.006850592326372862,-0.018910575658082962,0.9991505146026611
135831.564,-0.04338328167796135,0.1111215204000473,0.3863988518714905,0.3193278908729553,1.5533324480056763,-0.53899747133255,47.38226318359375,-1.154531717300415,-360.6583557128906,20,3.0,7.0,158,0.049037523567676544,-0.04393443837761879,0.16023129224777222,-0.035967785865068436,-0.006850592326372862,-0.018910575658082962,0.9991505146026611
135833.545,-0.04338328167796135,0.1111215204000473,0.3863988518714905,0.4570016860961914,2.7215566635131836,-0.6744018793106079,60.75732421875,13.419055938720703,-278.4641418457031,20,3.0,7.0,158,0.049037523567676544,-0.04393443837761879,0.16023129224777222,-0.035967785865068436,-0.006850592326372862,-0.018910575658082962,0.9991505146026611
135835.581,-0.04338328167796135,0.1111215204000473,0.3863988518714905,0.3649357259273529,3.0651955604553223,-0.10795776546001434,118.49424743652344,8.5805025100708,62.24795913696289,20,3.0,7.0,158,0.049037523567676544,-0.04393443837761879,0.16023129224777222,-0.035967785865068436,-0.006850592326372862,-0.018910575658082962,0.9991505146026611
135837.507,-0.040581561625003815,0.07079079002141953,0.36067381501197815,0.11532007157802582,2.4911839962005615,0.9731686115264893,143.323974609375,-13.566420555114746,338.51837158203125,22,-3.0,-9.0,153,0.049037523567676544,-0.04393443837761879,0.16023129224777222,-0.035967785865068436,-0.006850592326372862,-0.018910575658082962,0.9991505146026611
135839.567,-0.03758435323834419,0.06886101514101028,0.29342907667160034,-0.13540907204151154,1.37270987033844,2.063950300216675,110.723876953125,-25.87620735168457,347.4701843261719,22,-3.0,-9.0,153,0.04942993074655533,-0.04381889849901199,0.16282129287719727,-0.024351561442017555,-0.008238688111305237,-0.011632599867880344,0.9996019005775452
135841.469,-0.03797158598899841,0.06793081015348434,0.30324485898017883,-0.22975748777389526,0.42278048396110535,2.7764182090759277,61.8823127746582,-20.16189956665039,216.0410614013672,22,-3.0,-9.0,153,0.049098797142505646,-0.04296180233359337,0.16364134848117828,-0.021072762086987495,-0.006281099747866392,-0.0008700694888830185,0.9997578263282776
135843.45,-0.03835299238562584,0.06709133088588715,0.31288066506385803,-0.1633191853761673,-0.020355166867375374,2.9831368923187256,47.146690368652344,-20.668773651123047,91.7318344116211,22,-3.0,-9.0,153,0.049098797142505646,-0.04296180233359337,0.16364134848117828,-0.021072762086987495,-0.006281099747866392,-0.0008700694888830185,0.9997578263282776
135845.48,-0.03835299238562584,0.06709133088588715,0.31288066506385803,-0.014523860067129135,-0.3157227337360382,2.7314743995666504,81.4771499633789,-32.93057632446289,-2.7492799758911133,22,-3.0,-9.0,153,0.049098797142505646,-0.04296180233359337,0.16364134848117828,-0.021072762086987495,-0.006281099747866392,-0.0008700694888830185,0.9997578263282776
135847.412,-0.0429515540599823,0.07651001214981079,0.3996421694755554,0.24445569515228271,-0.7774691581726074,2.3694682121276855,134.3950653076172,-32.09040069580078,-52.59839630126953,22,-3.0,-9.0,153,0.049098797142505646,-0.04296180233359337,0.16364134848117828,-0.021072762086987495,-0.006281099747866392,-0.0008700694888830185,0.9997578263282776
135849.471,-0.0429515540599823,0.07651001214981079,0.3996421694755554,0.30191177129745483,-1.4506679773330688,2.1217687129974365,157.21826171875,-16.84702491760254,-14.454263687133789,22,-3.0,-9.0,153,0.049329161643981934,-0.042819343507289886,0.16574011743068695,-0.018201028928160667,-0.007210192270576954,0.0034646685235202312,0.9998023509979248
135851.375,-0.043735284358263016,0.07484987378120422,0.4208225905895233,0.007851340807974339,-2.0233514308929443,2.014737367630005,132.19085693359375,-4.010358810424805,61.710182189941406,22,-3.0,-9.0,153,0.048763588070869446,-0.042091112583875656,0.16781969368457794,-0.012288741767406464,-0.009086871519684792,0.007714406121522188,0.9998534917831421
135853.363,-0.043735284358263016,0.07484987378120422,0.4208225905895233,-0.31437060236930847,-1.896605372428894,2.0047390460968018,73.78905487060547,-2.008769989013672,35.32656478881836,22,-3.0,-9.0,153,0.048256564885377884,-0.04220736771821976,0.1702612340450287,-0.006053364370018244,-0.00876067578792572,0.010399033315479755,0.9998893141746521
135855.392,-0.04414676874876022,0.0740363821387291,0.4313087463378906,-0.37764251232147217,-1.0167083740234375,1.7123292684555054,22.418197631835938,-3.852290153503418,-108.56607055664062,22,-3.0,-9.0,153,0.048256564885377884,-0.04220736771821976,0.1702612340450287,-0.006053364370018244,-0.00876067578792572,0.010399033315479755,0.9998893141746521
135857.323,-0.05001262202858925,0.08073349297046661,0.5475886464118958,-0.017245065420866013,-0.2957555949687958,1.2579487562179565,36.592796325683594,2.190535545349121,-154.4453887939453,22,-3.0,-4.0,153,0.048256564885377884,-0.04220736771821976,0.1702612340450287,-0.006053364370018244,-0.00876067578792572,0.010399033315479755,0.9998893141746521
135859.376,-0.04815283045172691,0.0650905892252922,0.486579567193985,0.29542142152786255,-0.81218421459198,1.1215258836746216,104.64949035644531,13.54224681854248,75.9314956665039,30,-3.0,-4.0,153,0.049335889518260956,-0.04316781088709831,0.17522113025188446,-0.0023370725102722645,-0.00447929697111249,0.006186482030898333,0.9999681115150452
135861.28,-0.04850197210907936,0.06443987786769867,0.4965912103652954,0.0209392961114645,-2.456073522567749,1.1460082530975342,137.5034942626953,13.72016716003418,334.2911071777344,30,-3.0,-4.0,153,0.049335889518260956,-0.04316781088709831,0.17522113025188446,-0.0023370725102722645,-0.00447929697111249,0.006186482030898333,0.9999681115150452
135863.261,-0.04850197210907936,0.06443987786769867,0.4965912103652954,-0.535294771194458,-3.867830514907837,1.0614213943481445,97.1806411743164,-6.5733537673950195,217.48582458496094,30,-3.0,-4.0,153,0.049335889518260956,-0.04316781088709831,0.17522113025188446,-0.0023370725102722645,-0.00447929697111249,0.006186482030898333,0.9999681115150452
135865.292,-0.04850197210907936,0.06443987786769867,0.4965912103652954,-0.7649779915809631,-3.6943368911743164,0.922283411026001,12.067798614501953,-24.148042678833008,-188.06356811523438,30,-3.0,-4.0,153,0.04809566214680672,-0.043702010065317154,0.17684687674045563,-0.001112113706767559,-0.006757277995347977,0.0030258961487561464,0.9999719858169556
135867.223,-0.051964789628982544,0.06546256691217422,0.5272687673568726,-0.5077741146087646,-1.9518111944198608,0.7763866186141968,-68.20621490478516,-12.636186599731445,-438.73004150390625,30,-3.0,-4.0,153,0.04809566214680672,-0.043702010065317154,0.17684687674045563,-0.001112113706767559,-0.006757277995347977,0.0030258961487561464,0.9999719858169556
135869.274,-0.051964789628982544,0.06546256691217422,0.5272687673568726,-0.173085555434227,0.09190785139799118,0.8048314452171326,-97.5158462524414,12.849166870117188,-277.1799621582031,30,-3.0,-4.0,153,0.04809566214680672,-0.043702010065317154,0.17684687674045563,-0.001112113706767559,-0.006757277995347977,0.0030258961487561464,0.9999719858169556
135871.186,-0.051964789628982544,0.06546256691217422,0.5272687673568726,0.03392081707715988,1.229710340499878,0.9499274492263794,-93.60787200927734,17.17087173461914,102.2215576171875,30,-3.0,-4.0,153,0.04859689623117447,-0.04859154671430588,0.17885856330394745,0.020795032382011414,-0.005955646280199289,0.01442749984562397,0.9996619820594788
135873.175,-0.05233456939458847,0.0642019659280777,0.5380569696426392,0.09669280052185059,1.377410650253296,1.090896725654602,-119.54804229736328,2.4301352500915527,365.6445007324219,30,-3.0,-4.0,153,0.04859689623117447,-0.04859154671430588,0.17885856330394745,0.020795032382011414,-0.005955646280199289,0.01442749984562397,0.9996619820594788
135875.204,-0.05233456939458847,0.0642019659280777,0.5380569696426392,-0.13195425271987915,1.0043683052062988,1.1662122011184692,-185.37832641601562,-12.311110496520996,393.03289794921875,30,-3.0,-4.0,153,0.04750775545835495,-0.046555764973163605,0.18186593055725098,-0.012458490207791328,-0.005700024776160717,0.015871770679950714,0.9997801780700684
135877.134,-0.05233456939458847,0.0642019659280777,0.5380569696426392,-0.41550251841545105,0.523521900177002,1.184218406677246,-235.85250854492188,-8.662059783935547,221.43865966796875,30,7.0,-1.0,153,0.04750775545835495,-0.046555764973163605,0.18186593055725098,-0.012458490207791328,-0.005700024776160717,0.015871770679950714,0.9997801780700684
135879.195,-0.04712923616170883,0.1117357686161995,0.5000250935554504,-0.43642693758010864,0.3263731896877289,1.286179780960083,-227.52508544921875,8.918639183044434,-12.398679733276367,33,7.0,-1.0,153,0.04750775545835495,-0.046555764973163605,0.18186593055725098,-0.012458490207791328,-0.005700024776160717,0.015871770679950714,0.9997801780700684
135881.099,-0.04712923616170883,0.1117357686161995,0.5000250935554504,-0.2995256185531616,0.5541591048240662,1.477921485900879,-168.03660583496094,11.596927642822266,-189.01690673828125,33,7.0,-1.0,153,0.04742494970560074,-0.04753061756491661,0.18537047505378723,-0.02267707884311676,-0.006625824607908726,0.0223337821662426,0.9994713664054871
135883.072,-0.047477614134550095,0.11007501929998398,0.5097588300704956,0.03187958896160126,1.0589572191238403,1.6756244897842407,-89.06095886230469,8.62964916229248,-263.2209167480469,33,7.0,-1.0,153,0.04742494970560074,-0.04753061756491661,0.18537047505378723,-0.02267707884311676,-0.006625824607908726,0.0223337821662426,0.9994713664054871
135885.101,-0.047477614134550095,0.11007501929998398,0.5097588300704956,0.3377956449985504,1.4440408945083618,1.7634392976760864,-16.31664276123047,14.348576545715332,-185.1347198486328,33,7.0,-1.0,153,0.04742494970560074,-0.04753061756491661,0.18537047505378723,-0.02267707884311676,-0.006625824607908726,0.0223337821662426,0.9994713664054871
135887.033,-0.05086199939250946,0.11160971969366074,0.5464763045310974,0.31841129064559937,1.1904408931732178,1.767704725265503,39.464778900146484,22.14219856262207,-27.33182144165039,33,7.0,-1.0,153,0.04677029326558113,-0.04829550161957741,0.18731534481048584,-0.025558972731232643,-0.007114661391824484,0.009253709577023983,0.9996052384376526
135889.094,-0.0512254498898983,0.1096251979470253,0.5571991801261902,0.03830013796687126,0.38629651069641113,1.756765365600586,61.64680099487305,30.623014450073242,45.664981842041016,33,7.0,-1.0,153,0.04677029326558113,-0.04829550161957741,0.18731534481048584,-0.025558972731232643,-0.007114661391824484,0.009253709577023983,0.9996052384376526
135890.996,-0.0512254498898983,0.1096251979470253,0.5571991801261902,-0.2779671847820282,0.04287810996174812,1.6652930974960327,30.23532485961914,28.935834884643555,-69.82494354248047,33,7.0,-1.0,153,0.04677029326558113,-0.04829550161957741,0.18731534481048584,-0.025558972731232643,-0.007114661391824484,0.009253709577023983,0.9996052384376526
135892.977,-0.0512254498898983,0.1096251979470253,0.5571991801261902,-0.3436390161514282,1.0671766996383667,1.2350506782531738,-59.61494445800781,11.543610572814941,-315.2483215332031,33,7.0,-1.0,153,0.0465388260781765,-0.047893673181533813,0.19129332900047302,-0.02013896033167839,-0.005161954555660486,-0.006195662077516317,0.9997646808624268
135895.013,-0.051573846489191055,0.107732392847538,0.5680183172225952,-0.04613514244556427,2.9343667030334473,0.4739952087402344,-145.89199829101562,-5.2798662185668945,-413.8312683105469,33,0.0,-3.0,154,0.0465388260781765,-0.047893673181533813,0.19129332900047302,-0.02013896033167839,-0.005161954555660486,-0.006195662077516317,0.9997646808624268
135896.94,-0.04801875352859497,0.13378743827342987,0.5537323951721191,0.2626953423023224,4.103271961212158,-0.20197924971580505,-144.1527862548828,-6.728785991668701,-145.10916137695312,41,0.0,-3.0,154,0.0465388260781765,-0.047893673181533813,0.19129332900047302,-0.02013896033167839,-0.005161954555660486,-0.006195662077516317,0.9997646808624268
135898.989,-0.04801875352859497,0.13378743827342987,0.5537323951721191,0.318698912858963,3.6395022869110107,-0.5108699798583984,-82.05074310302734,-6.57238245010376,269.9927978515625,41,0.0,-3.0,154,0.04555468261241913,-0.04764540493488312,0.1939723789691925,-0.020351609215140343,-0.006952960044145584,-0.007384369615465403,0.9997414946556091
135900.902,-0.04844466224312782,0.13161613047122955,0.5639715790748596,0.2920723557472229,1.9998465776443481,-0.364035040140152,-45.63077926635742,-18.713315963745117,400.7591247558594,41,0.0,-3.0,154,0.04555468261241913,-0.04764540493488312,0.1939723789691925,-0.020351609215140343,-0.006952960044145584,-0.007384369615465403,0.9997414946556091
135902.889,-0.04844466224312782,0.13161613047122955,0.5639715790748596,0.25142693519592285,0.2510620057582855,0.12525606155395508,-41.26430130004883,-27.516902923583984,195.95193481445312,41,0.0,-3.0,154,0.04555468261241913,-0.04764540493488312,0.1939723789691925,-0.020351609215140343,-0.006952960044145584,-0.007384369615465403,0.9997414946556091
135904.911,-0.04844466224312782,0.13161613047122955,0.5639715790748596,-0.014318002387881279,-0.9407816529273987,0.6870669722557068,-32.24763107299805,-21.722484588623047,-41.423519134521484,41,0.0,-3.0,154,0.045061126351356506,-0.047776006162166595,0.1957942098379135,-0.036893200129270554,-0.010731601156294346,-0.011819315142929554,0.9991917610168457
135906.845,-0.04681674391031265,0.12546388804912567,0.47162288427352905,-0.3376041650772095,-1.4141472578048706,1.1987372636795044,6.292598724365234,-21.007936477661133,-122.87096405029297,41,0.0,-3.0,154,0.045061126351356506,-0.047776006162166595,0.1957942098379135,-0.036893200129270554,-0.010731601156294346,-0.011819315142929554,0.9991917610168457
135908.895,-0.04681674391031265,0.12546388804912567,0.47162288427352905,-0.4050954282283783,-1.164708137512207,1.49131178855896,73.13920593261719,-30.393037796020508,-119.19839477539062,41,0.0,-3.0,154,0.04488395154476166,-0.046096839010715485,0.19914284348487854,-0.025986837223172188,-0.010089614428579807,-0.010107358917593956,0.9995602965354919
135910.807,-0.047269921749830246,0.12340063601732254,0.4829126000404358,-0.11829864978790283,-0.3591928482055664,1.4663488864898682,131.50216674804688,-26.73253631591797,-100.24063873291016,41,0.0,-3.0,154,0.04488395154476166,-0.046096839010715485,0.19914284348487854,-0.025986837223172188,-0.010089614428579807,-0.010107358917593956,0.9995602965354919
135912.788,-0.047269921749830246,0.12340063601732254,0.4829126000404358,0.23206083476543427,0.3349113166332245,1.4005839824676514,151.53314208984375,-10.024169921875,-28.710908889770508,41,0.0,-3.0,154,0.04488395154476166,-0.046096839010715485,0.19914284348487854,-0.025986837223172188,-0.010089614428579807,-0.010107358917593956,0.9995602965354919
135914.822,-0.047269921749830246,0.12340063601732254,0.4829126000404358,0.36170494556427,0.2024429738521576,1.3626028299331665,138.35537719726562,-7.413966655731201,127.34711456298828,41,-11.0,-16.0,153,0.04424528777599335,-0.04501182585954666,0.20240823924541473,-0.020255478098988533,-0.013253360986709595,-0.005932999774813652,0.9996894598007202
135916.757,-0.047269921749830246,0.12340063601732254,0.4829126000404358,0.13369424641132355,-0.719487190246582,1.3101807832717896,102.7815933227539,-16.49772071838379,265.5066833496094,44,-11.0,-16.0,153,0.04424528777599335,-0.04501182585954666,0.20240823924541473,-0.020255478098988533,-0.013253360986709595,-0.005932999774813652,0.9996894598007202
135918.813,-0.06103043630719185,0.07373744994401932,0.48464080691337585,-0.30014780163764954,-1.604280948638916,1.3343807458877563,51.04713821411133,-24.73636245727539,184.1337890625,44,-11.0,-16.0,153,0.04424528777599335,-0.04501182585954666,0.20240823924541473,-0.020255478098988533,-0.013253360986709595,-0.005932999774813652,0.9996894598007202
135920.711,-0.06103043630719185,0.07373744994401932,0.48464080691337585,-0.5430837869644165,-1.7441675662994385,1.361588716506958,-1.1148972511291504,-25.851030349731445,-92.27904510498047,44,-11.0,-16.0,153,0.04412189871072769,-0.04464460536837578,0.2052144557237625,-0.017898259684443474,-0.009838994592428207,0.0065660118125379086,0.999769926071167
135922.698,-0.06144867464900017,0.07277262955904007,0.49467960000038147,-0.48013541102409363,-1.239656925201416,1.4554380178451538,-34.36109161376953,-19.358139038085938,-249.53875732421875,44,-11.0,-16.0,153,0.04412189871072769,-0.04464460536837578,0.2052144557237625,-0.017898259684443474,-0.009838994592428207,0.0065660118125379086,0.999769926071167
135924.73,-0.06144867464900017,0.07277262955904007,0.49467960000038147,-0.21938621997833252,-0.7031984329223633,1.6441144943237305,-35.0311279296875,-12.77285385131836,-131.9491729736328,44,-11.0,-16.0,153,0.04412189871072769,-0.04464460536837578,0.2052144557237625,-0.017898259684443474,-0.009838994592428207,0.0065660118125379086,0.999769926071167
135926.655,-0.06447991728782654,0.07839443534612656,0.5299715995788574,0.030786413699388504,-0.7610030770301819,1.5945812463760376,3.5408377647399902,-12.362133979797363,74.0382080078125,44,-11.0,-16.0,153,0.04365222156047821,-0.04449092596769333,0.20878055691719055,-0.017793960869312286,-0.011967258527874947,0.012631715275347233,0.9996902942657471
135928.706,-0.0649290457367897,0.07739643007516861,0.5412324666976929,-0.013758167624473572,-1.5222234725952148,1.0662566423416138,50.56781768798828,-17.785022735595703,162.13607788085938,44,-11.0,-16.0,153,0.04365222156047821,-0.04449092596769333,0.20878055691719055,-0.017793960869312286,-0.011967258527874947,0.012631715275347233,0.9996902942657471
135930.624,-0.0649290457367897,0.07739643007516861,0.5412324666976929,-0.21519936621189117,-2.292280435562134,0.41305476427078247,63.797019958496094,-14.23074722290039,54.04848098754883,44,-11.0,-16.0,153,0.04445723816752434,-0.04541532322764397,0.21336135268211365,-0.019489813596010208,-0.007038563955575228,-0.0012647128896787763,0.999784529209137
135932.603,-0.06531583517789841,0.07640492171049118,0.5526347160339355,-0.28356024622917175,-2.4006834030151367,-0.08122064173221588,37.9118537902832,-2.108839988708496,-181.58692932128906,44,-11.0,-16.0,153,0.04445723816752434,-0.04541532322764397,0.21336135268211365,-0.019489813596010208,-0.007038563955575228,-0.0012647128896787763,0.999784529209137
135934.629,-0.07298657298088074,0.04561656713485718,0.5575320720672607,-0.21576324105262756,-1.9674142599105835,-0.24584852159023285,1.6361267566680908,-1.8245350122451782,-375.2165222167969,44,-9.0,-29.0,151,0.04445723816752434,-0.04541532322764397,0.21336135268211365,-0.019489813596010208,-0.007038563955575228,-0.0012647128896787763,0.999784529209137
135936.56,-0.06992193311452866,0.04479028284549713,0.45259207487106323,-0.1118554100394249,-1.3269951343536377,0.021530354395508766,-16.51335334777832,-14.446319580078125,-389.1241455078125,48,-9.0,-29.0,151,0.04262440651655197,-0.04563290253281593,0.21400651335716248,-0.01443970762193203,-0.012744489125907421,-0.0065815644338727,0.9997929334640503
135938.612,-0.07039997726678848,0.044163186103105545,0.46338531374931335,-0.06855746358633041,-0.37553954124450684,0.5727484226226807,-30.167503356933594,-20.887550354003906,-253.8992462158203,48,-9.0,-29.0,151,0.04262440651655197,-0.04563290253281593,0.21400651335716248,-0.01443970762193203,-0.012744489125907421,-0.0065815644338727,0.9997929334640503
135940.523,-0.07039997726678848,0.044163186103105545,0.46338531374931335,0.03750838711857796,0.5029159784317017,1.0773664712905884,-51.09864044189453,-10.399045944213867,-103.2458724975586,48,-9.0,-29.0,151,0.04262440651655197,-0.04563290253281593,0.21400651335716248,-0.01443970762193203,-0.012744489125907421,-0.0065815644338727,0.9997929334640503
135942.507,-0.07039997726678848,0.044163186103105545,0.46338531374931335,0.1783587634563446,0.6669966578483582,1.4450876712799072,-65.09247589111328,4.368361473083496,81.2050552368164,48,-9.0,-29.0,151,0.04180428385734558,-0.04679901525378227,0.21646320819854736,-0.01780116930603981,-0.014396615326404572,-0.015575876459479332,0.9996165633201599
135944.543,-0.07090520113706589,0.043512605130672455,0.47412940859794617,0.08679118007421494,0.06161881238222122,1.7255456447601318,-76.43230438232422,5.6369194984436035,241.56663513183594,48,-9.0,-29.0,151,0.04180428385734558,-0.04679901525378227,0.21646320819854736,-0.01780116930603981,-0.014396615326404572,-0.015575876459479332,0.9996165633201599
135946.467,-0.07146033644676208,0.044426631182432175,0.44041305780410767,-0.08145803213119507,-0.6996863484382629,1.8499327898025513,-93.45222473144531,0.23897749185562134,168.20347595214844,48,-9.0,-29.0,151,0.04180428385734558,-0.04679901525378227,0.21646320819854736,-0.01780116930603981,-0.014396615326404572,-0.015575876459479332,0.9996165633201599
135948.516,-0.07146033644676208,0.044426631182432175,0.44041305780410767,0.038400307297706604,-0.8363697528839111,1.6995333433151245,-102.4067153930664,1.7267115116119385,-90.50615692138672,48,-9.0,-29.0,151,0.0418192520737648,-0.04845104739069939,0.22054173052310944,-0.02278924733400345,-0.011918891221284866,-0.018257228657603264,0.9995025396347046
135950.433,-0.07197090238332748,0.04362161457538605,0.45257312059402466,0.3132391571998596,-0.20097626745700836,1.3670259714126587,-89.21951293945312,9.71550178527832,-258.59002685546875,48,-9.0,-29.0,151,0.0418192520737648,-0.04845104739069939,0.22054173052310944,-0.02278924733400345,-0.011918891221284866,-0.018257228657603264,0.9995025396347046
135952.41,-0.07197090238332748,0.04362161457538605,0.45257312059402466,0.36607328057289124,0.6045699715614319,1.1566593647003174,-48.503509521484375,18.28436279296875,-186.66481018066406,48,-9.0,-29.0,151,0.04062002897262573,-0.049290981143713,0.22314077615737915,-0.026147224009037018,-0.011591470800340176,-0.015158808790147305,0.9994759559631348
135954.444,-0.07251375913619995,0.04282454773783684,0.4646610915660858,0.16416282951831818,0.9608478546142578,1.134908676147461,12.19861125946045,22.967382431030273,35.29218292236328,48,-4.0,-15.0,146,0.04062002897262573,-0.049290981143713,0.22314077615737915,-0.026147224009037018,-0.011591470800340176,-0.015158808790147305,0.9994759559631348
135956.378,-0.062119260430336,0.03755336254835129,0.44116270542144775,0.1340128481388092,0.9098489284515381,1.1646075248718262,66.86721801757812,30.261178970336914,221.3309783935547,59,-4.0,-15.0,146,0.04062002897262573,-0.049290981143713,0.22314077615737915,-0.026147224009037018,-0.011591470800340176,-0.015158808790147305,0.9994759559631348
135958.441,-0.062119260430336,0.03755336254835129,0.44116270542144775,0.2507608234882355,0.6092901229858398,1.1846026182174683,94.7830810546875,38.885013580322266,224.5812530517578,59,-4.0,-15.0,146,0.04047553986310959,-0.05023939162492752,0.22573164105415344,-0.02714175544679165,-0.011400661431252956,-0.017596706748008728,0.9994117021560669
135960.334,-0.06280171871185303,0.03669773414731026,0.45265325903892517,0.17330241203308105,0.20049093663692474,1.1432225704193115,86.66846466064453,41.22138214111328,41.463401794433594,59,-4.0,-15.0,146,0.04047553986310959,-0.05023939162492752,0.22573164105415344,-0.02714175544679165,-0.011400661431252956,-0.017596706748008728,0.9994117021560669
135962.315,-0.06280171871185303,0.03669773414731026,0.45265325903892517,0.08265495300292969,0.2999548614025116,0.9517170786857605,39.49582290649414,31.724336624145508,-169.02073669433594,59,-4.0,-15.0,146,0.04047553986310959,-0.05023939162492752,0.22573164105415344,-0.02714175544679165,-0.011400661431252956,-0.017596706748008728,0.9994117021560669
135964.347,-0.06280171871185303,0.03669773414731026,0.45265325903892517,0.32353949546813965,1.3632475137710571,0.601963222026825,-34.55632019042969,8.549943923950195,-224.59849548339844,59,-4.0,-15.0,146,0.04029824584722519,-0.05048157274723053,0.22958669066429138,-0.01962979882955551,-0.01017230935394764,-0.01451385673135519,0.999650239944458
135966.277,-0.06682267785072327,0.04133179783821106,0.467926949262619,0.56858229637146,2.80743670463562,0.32018211483955383,-87.18170166015625,-5.569344520568848,-36.56806945800781,59,-4.0,-15.0,146,0.04029824584722519,-0.05048157274723053,0.22958669066429138,-0.01962979882955551,-0.01017230935394764,-0.01451385673135519,0.999650239944458
135968.328,-0.06682267785072327,0.04133179783821106,0.467926949262619,0.33391329646110535,3.5921666622161865,0.36040550470352173,-89.99874877929688,5.9287309646606445,280.9470520019531,59,-4.0,-15.0,146,0.04029824584722519,-0.05048157274723053,0.22958669066429138,-0.01962979882955551,-0.01017230935394764,-0.01451385673135519,0.999650239944458
135970.244,-0.06682267785072327,0.04133179783821106,0.467926949262619,-0.1331258863210678,3.380811929702759,0.7470734119415283,-83.08905029296875,12.161724090576172,427.8291015625,59,-4.0,-15.0,146,0.038690656423568726,-0.050201624631881714,0.23152390122413635,-0.01987912505865097,-0.009099477902054787,-0.004469831939786673,0.999751091003418
135972.221,-0.06759653985500336,0.04047584906220436,0.4809306263923645,-0.18955737352371216,2.670802593231201,1.0667554140090942,-90.15582275390625,-11.861817359924316,286.08135986328125,59,-4.0,-15.0,146,0.038690656423568726,-0.050201624631881714,0.23152390122413635,-0.01987912505865097,-0.009099477902054787,-0.004469831939786673,0.999751091003418
135974.266,-0.06759653985500336,0.04047584906220436,0.4809306263923645,0.14162248373031616,1.7696236371994019,1.0803085565567017,-87.54900360107422,-32.90578079223633,91.95081329345703,59,-4.0,-15.0,146,0.038690656423568726,-0.050201624631881714,0.23152390122413635,-0.01987912505865097,-0.009099477902054787,-0.004469831939786673,0.999751091003418
135976.181,-0.06759653985500336,0.04047584906220436,0.4809306263923645,0.22311781346797943,0.7058864235877991,0.9912667274475098,-53.20631408691406,-15.355325698852539,74.27971649169922,66,-5.0,-8.0,147,0.03883599489927292,-0.04998661205172539,0.23356148600578308,-0.03364647552371025,-0.010346092283725739,0.0014289487153291702,0.9993792772293091
135978.233,-0.0807599127292633,0.05463293939828873,0.4019884169101715,0.05151333287358284,-0.13218830525875092,0.9118592143058777,12.393147468566895,8.567197799682617,120.95211791992188,66,-5.0,-8.0,147,0.03883599489927292,-0.04998661205172539,0.23356148600578308,-0.03364647552371025,-0.010346092283725739,0.0014289487153291702,0.9993792772293091
135980.15,-0.0807599127292633,0.05463293939828873,0.4019884169101715,0.11296628415584564,-0.329257994890213,0.6868598461151123,89.943359375,4.540896892547607,26.148094177246094,66,-5.0,-8.0,147,0.03883599489927292,-0.04998661205172539,0.23356148600578308,-0.03364647552371025,-0.010346092283725739,0.0014289487153291702,0.9993792772293091
135982.125,-0.0807599127292633,0.05463293939828873,0.4019884169101715,0.2221023440361023,-0.1339011937379837,0.39865702390670776,156.00318908691406,-3.0561084747314453,-102.13301849365234,66,-5.0,-8.0,147,0.03859854117035866,-0.04882890358567238,0.23792237043380737,-0.030518274754285812,-0.011033846065402031,0.006035692524164915,0.9994551539421082
135984.155,-0.0813991129398346,0.053682707250118256,0.4150560200214386,-0.20238260924816132,-0.03423653542995453,0.41949278116226196,191.48805236816406,-1.6455062627792358,-82.03736114501953,66,-5.0,-8.0,147,0.03859854117035866,-0.04882890358567238,0.23792237043380737,-0.030518274754285812,-0.011033846065402031,0.006035692524164915,0.9994551539421082
135986.09,-0.0813991129398346,0.053682707250118256,0.4150560200214386,-0.7236349582672119,-0.07072865217924118,0.6857975721359253,185.32110595703125,-4.150234699249268,-27.225372314453125,66,-5.0,-8.0,147,0.037985168397426605,-0.04747792333364487,0.24062040448188782,-0.019110318273305893,-0.009206097573041916,0.0016675010556355119,0.9997736215591431
135988.138,-0.08179657906293869,0.05832185968756676,0.3883988857269287,-0.4182599186897278,0.020955828949809074,0.7820487022399902,157.23345947265625,-1.8218187093734741,-92.0697250366211,66,-5.0,-8.0,147,0.037985168397426605,-0.04747792333364487,0.24062040448188782,-0.019110318273305893,-0.009206097573041916,0.0016675010556355119,0.9997736215591431
135990.05,-0.08179657906293869,0.05832185968756676,0.3883988857269287,0.1818510890007019,0.15023885667324066,0.7434267997741699,135.7390594482422,6.4582839012146,-135.10784912109375,66,-5.0,-8.0,147,0.037985168397426605,-0.04747792333364487,0.24062040448188782,-0.019110318273305893,-0.009206097573041916,0.0016675010556355119,0.9997736215591431
135992.041,-0.08179657906293869,0.05832185968756676,0.3883988857269287,0.27506259083747864,-0.031441763043403625,0.8245619535446167,132.28750610351562,1.0775461196899414,21.177473068237305,66,-5.0,-8.0,147,0.03830520436167717,-0.046608615666627884,0.2433994710445404,-0.010935620404779911,-0.009614589624106884,0.0036368563305586576,0.9998874068260193
135994.064,-0.08244422823190689,0.05752360075712204,0.4031297266483307,0.1145990863442421,-0.588642954826355,0.8998125195503235,137.18218994140625,-10.44798755645752,234.1317596435547,66,-5.0,-8.0,147,0.03830520436167717,-0.046608615666627884,0.2433994710445404,-0.010935620404779911,-0.009614589624106884,0.0036368563305586576,0.9998874068260193
135996.004,-0.09066420048475266,0.025849180296063423,0.41660916805267334,0.04277312010526657,-1.2392281293869019,0.883021354675293,138.80380249023438,-10.19257640838623,270.2908630371094,79,-8.0,-3.0,143,0.03830520436167717,-0.046608615666627884,0.2433994710445404,-0.010935620404779911,-0.009614589624106884,0.0036368563305586576,0.9998874068260193
135998.063,-0.08804194629192352,0.023074230179190636,0.3661777675151825,-0.014725222252309322,-1.7686444520950317,1.0383273363113403,140.84449768066406,0.591251790523529,162.3120880126953,79,-8.0,-3.0,143,0.037037163972854614,-0.04588891193270683,0.2451344132423401,-0.0077223023399710655,-0.009217272512614727,0.0020164221059530973,0.9999257326126099
135999.956,-0.08837524056434631,0.026828385889530182,0.3491096496582031,-0.14057302474975586,-2.219858407974243,1.3514680862426758,146.74305725097656,10.70333194732666,66.36913299560547,79,-8.0,-3.0,143,0.037037163972854614,-0.04588891193270683,0.2451344132423401,-0.0077223023399710655,-0.009217272512614727,0.0020164221059530973,0.9999257326126099
136001.946,-0.08837524056434631,0.026828385889530182,0.3491096496582031,-0.23836874961853027,-2.4816462993621826,1.5785778760910034,142.26068115234375,16.348176956176758,-7.4200568199157715,79,-8.0,-3.0,143,0.037037163972854614,-0.04588891193270683,0.2451344132423401,-0.0077223023399710655,-0.009217272512614727,0.0020164221059530973,0.9999257326126099
136003.97,-0.08837524056434631,0.026828385889530182,0.3491096496582031,-0.11865638941526413,-2.0779755115509033,1.6038854122161865,103.62338256835938,18.110750198364258,-97.18450927734375,79,-8.0,-3.0,143,0.036629293113946915,-0.04529958218336105,0.24829085171222687,0.000521895766723901,-0.00784303992986679,0.012919160537421703,0.9998857378959656
136005.899,-0.08902374655008316,0.026750294491648674,0.3629436492919922,0.13136380910873413,-0.9172422885894775,1.2907260656356812,32.109195709228516,17.28192901611328,-151.16238403320312,79,-8.0,-3.0,143,0.036629293113946915,-0.04529958218336105,0.24829085171222687,0.000521895766723901,-0.00784303992986679,0.012919160537421703,0.9998857378959656
136007.949,-0.08902374655008316,0.026750294491648674,0.3629436492919922,0.09256834536790848,0.2759894132614136,0.8019511103630066,-25.316293716430664,14.81583023071289,-92.4321517944336,79,-8.0,-3.0,143,0.03635995090007782,-0.04613424092531204,0.250914067029953,0.011873816139996052,-0.006170758977532387,0.02685702033340931,0.9995497465133667
136009.861,-0.09233477711677551,0.026933342218399048,0.41368627548217773,-0.11192216724157333,0.6173940300941467,0.38378509879112244,-32.165870666503906,16.480751037597656,98.71920776367188,79,-8.0,-3.0,143,0.03635995090007782,-0.04613424092531204,0.250914067029953,0.011873816139996052,-0.006170758977532387,0.02685702033340931,0.9995497465133667
136011.842,-0.09233477711677551,0.026933342218399048,0.41368627548217773,-0.05578814446926117,-0.12371353805065155,0.10282586514949799,-11.458185195922852,26.645267486572266,295.7086486816406,79,-8.0,-3.0,143,0.03635995090007782,-0.04613424092531204,0.250914067029953,0.011873816139996052,-0.006170758977532387,0.02685702033340931,0.9995497465133667
136013.878,-0.09233477711677551,0.026933342218399048,0.41368627548217773,0.06231259927153587,-1.2198206186294556,0.1379706710577011,-12.232688903808594,30.919923782348633,283.43231201171875,79,-8.0,-3.0,143,0.035422682762145996,-0.04659351706504822,0.25289440155029297,5.58572901354637e-06,-0.006922449450939894,0.021950801834464073,0.9997351169586182
136015.817,-0.09233477711677551,0.026933342218399048,0.41368627548217773,-0.02804969996213913,-1.834545373916626,0.490583211183548,-39.21870803833008,16.157716751098633,65.29228210449219,79,-1.0,16.0,142,0.035422682762145996,-0.04659351706504822,0.25289440155029297,5.58572901354637e-06,-0.006922449450939894,0.021950801834464073,0.9997351169586182
136017.855,-0.073246531188488,0.03825486823916435,0.3717247545719147,-0.27164703607559204,-1.8983168601989746,0.9728124141693115,-50.61518478393555,-10.94672966003418,-131.3607635498047,86,-1.0,16.0,142,0.035422682762145996,-0.04659351706504822,0.25289440155029297,5.58572901354637e-06,-0.006922449450939894,0.021950801834464073,0.9997351169586182
136019.765,-0.07261529564857483,0.03646400198340416,0.30983826518058777,-0.3793931305408478,-1.6637494564056396,1.422661542892456,-25.937217712402344,-19.67723274230957,-187.15866088867188,86,-1.0,16.0,142,0.03476443141698837,-0.047073427587747574,0.25509321689605713,-0.0008478313102386892,-0.005590592045336962,0.008678041398525238,0.9999464154243469
136021.752,-0.0734221488237381,0.03603903576731682,0.3243575394153595,-0.2895299196243286,-1.1969407796859741,1.757576584815979,5.381826877593994,-1.9042340517044067,-219.7661590576172,86,-1.0,16.0,142,0.03476443141698837,-0.047073427587747574,0.25509321689605713,-0.0008478313102386892,-0.005590592045336962,0.008678041398525238,0.9999464154243469
136023.777,-0.0734221488237381,0.03603903576731682,0.3243575394153595,-0.14095784723758698,-0.5316683650016785,1.8558357954025269,11.58386516571045,16.117843627929688,-255.50160217285156,86,-1.0,16.0,142,0.03476443141698837,-0.047073427587747574,0.25509321689605713,-0.0008478313102386892,-0.005590592045336962,0.008678041398525238,0.9999464154243469
136025.709,-0.0734221488237381,0.03603903576731682,0.3243575394153595,0.001262633828446269,0.11684660613536835,1.7760069370269775,-4.621194839477539,20.06154441833496,-165.9972686767578,86,-1.0,16.0,142,0.03509490191936493,-0.04827014356851578,0.2585090398788452,0.00261369114741683,-0.004266843199729919,0.0031700050458312035,0.9999825358390808
136027.76,-0.07419661432504654,0.035520147532224655,0.33882638812065125,0.15907223522663116,0.5134395956993103,1.6277049779891968,-25.578779220581055,8.07061767578125,10.83848762512207,86,-1.0,16.0,142,0.03509490191936493,-0.04827014356851578,0.2585090398788452,0.00261369114741683,-0.004266843199729919,0.0031700050458312035,0.9999825358390808
136029.674,-0.07670456171035767,0.033598195761442184,0.3964664340019226,0.26770657300949097,0.6678143739700317,1.4403963088989258,-29.05270004272461,-6.117335319519043,111.51577758789062,86,-1.0,16.0,142,0.033942122012376785,-0.04883147031068802,0.26046696305274963,-0.0014858905924484134,-0.006559796631336212,0.00480770505964756,0.9999659061431885
136031.653,-0.07755732536315918,0.03298730030655861,0.41258466243743896,0.15846383571624756,0.6496258974075317,1.363868236541748,-8.359972953796387,6.2052459716796875,108.24317932128906,86,-1.0,16.0,142,0.033942122012376785,-0.04883147031068802,0.26046696305274963,-0.0014858905924484134,-0.006559796631336212,0.00480770505964756,0.9999659061431885
136033.688,-0.07755732536315918,0.03298730030655861,0.41258466243743896,-0.0650746077299118,0.3549617826938629,1.4169141054153442,19.686077117919922,31.512348175048828,67.44932556152344,86,-1.0,16.0,142,0.033942122012376785,-0.04883147031068802,0.26046696305274963,-0.0014858905924484134,-0.006559796631336212,0.00480770505964756,0.9999659061431885
136035.623,-0.07755732536315918,0.03298730030655861,0.41258466243743896,-0.01783682033419609,-0.015714555978775024,1.3237078189849854,36.64228820800781,32.113983154296875,26.108257293701172,86,-1.0,30.0,141,0.03359212726354599,-0.04935479909181595,0.26360055804252625,-0.005722675006836653,-0.00627799890935421,0.004561158362776041,0.9999535083770752
136037.675,-0.07755732536315918,0.03298730030655861,0.41258466243743896,0.19488339126110077,0.175204798579216,0.9392303824424744,18.34505271911621,15.1871976852417,1.791102647781372,98,-1.0,30.0,141,0.03359212726354599,-0.04935479909181595,0.26360055804252625,-0.005722675006836653,-0.00627799890935421,0.004561158362776041,0.9999535083770752
136039.577,-0.05992773547768593,0.0390879362821579,0.4126618504524231,0.23121130466461182,1.1921600103378296,0.5568251609802246,-33.45185089111328,18.009305953979492,-39.3745231628418,98,-1.0,30.0,141,0.03359212726354599,-0.04935479909181595,0.26360055804252625,-0.005722675006836653,-0.00627799890935421,0.004561158362776041,0.9999535083770752
136041.557,-0.05992773547768593,0.0390879362821579,0.4126618504524231,0.19638963043689728,2.4927334785461426,0.37846535444259644,-74.5171890258789,30.469642639160156,-93.21783447265625,98,-1.0,30.0,141,0.03313272073864937,-0.05050644651055336,0.2671906352043152,0.005144927185028791,-0.0038241627626121044,0.007880758494138718,0.9999485015869141
136043.588,-0.060864999890327454,0.03817106410861015,0.4280254542827606,0.26183879375457764,3.1943111419677734,0.36023879051208496,-76.41236114501953,20.175643920898438,-34.10163497924805,98,-1.0,30.0,141,0.03313272073864937,-0.05050644651055336,0.2671906352043152,0.005144927185028791,-0.0038241627626121044,0.007880758494138718,0.9999485015869141
136045.525,-0.060864999890327454,0.03817106410861015,0.4280254542827606,0.25623786449432373,3.00793719291687,0.8104853630065918,-65.76914978027344,2.3152642250061035,114.85823822021484,98,-1.0,30.0,141,0.03313272073864937,-0.05050644651055336,0.2671906352043152,0.005144927185028791,-0.0038241627626121044,0.007880758494138718,0.9999485015869141
136047.571,-0.06184115260839462,0.03750162944197655,0.443149209022522,-0.033496253192424774,2.409930944442749,1.4445202350616455,-80.45092010498047,-4.748503684997559,136.7598876953125,98,-1.0,30.0,141,0.03155040368437767,-0.04932630807161331,0.26893338561058044,-0.00599459744989872,-0.0034157305490225554,0.013080623932182789,0.9998906850814819
136049.482,-0.061797741800546646,0.0351962111890316,0.4064009487628937,-0.30987095832824707,1.8448184728622437,1.7017606496810913,-96.57511138916016,-10.551615715026855,-10.671775817871094,98,-1.0,30.0,141,0.03155040368437767,-0.04932630807161331,0.26893338561058044,-0.00599459744989872,-0.0034157305490225554,0.013080623932182789,0.9998906850814819
136051.469,-0.061797741800546646,0.0351962111890316,0.4064009487628937,-0.34278780221939087,1.4333679676055908,1.533271312713623,-80.84568786621094,-16.209375381469727,-107.78837585449219,98,-1.0,30.0,141,0.03155040368437767,-0.04932630807161331,0.26893338561058044,-0.00599459744989872,-0.0034157305490225554,0.013080623932182789,0.9998906850814819
136053.492,-0.061797741800546646,0.0351962111890316,0.4064009487628937,-0.17498770356178284,1.0065016746520996,1.1328006982803345,-21.078128814697266,-17.81552505493164,-92.53235626220703,98,-1.0,30.0,141,0.03148075193166733,-0.04892176017165184,0.27172720432281494,-0.011538849212229252,-0.004308719653636217,0.008874041959643364,0.999884843826294
136055.429,-0.06280889362096786,0.03448425605893135,0.42349928617477417,0.02123897708952427,0.60270756483078,0.625624418258667,56.25435256958008,-19.750673294067383,-75.38658905029297,98,-1.0,30.0,141,0.03148075193166733,-0.04892176017165184,0.27172720432281494,-0.011538849212229252,-0.004308719653636217,0.008874041959643364,0.999884843826294
136057.489,-0.06280889362096786,0.03448425605893135,0.42349928617477417,0.054088883101940155,0.24494078755378723,0.19586563110351562,114.30421447753906,-21.112457275390625,-79.35548400878906,98,-2.0,2.0,139,0.030921854078769684,-0.04784107580780983,0.2748897671699524,-0.00991078931838274,-0.006785933393985033,-0.007682902738451958,0.999898374080658
136059.387,-0.06280889362096786,0.03448425605893135,0.42349928617477417,0.020478753373026848,-0.21648171544075012,-0.0072487168945372105,142.32412719726562,-11.820274353027344,-61.0910758972168,108,-2.0,2.0,139,0.030921854078769684,-0.04784107580780983,0.2748897671699524,-0.00991078931838274,-0.006785933393985033,-0.007682902738451958,0.999898374080658
136061.369,-0.06686357408761978,0.013454046100378036,0.37465882301330566,-0.04081212356686592,-0.6337763667106628,0.07963939756155014,145.86306762695312,5.97084379196167,-44.31564712524414,108,-2.0,2.0,139,0.030921854078769684,-0.04784107580780983,0.2748897671699524,-0.00991078931838274,-0.006785933393985033,-0.007682902738451958,0.999898374080658
136063.399,-0.06686357408761978,0.013454046100378036,0.37465882301330566,-0.1599283218383789,-0.5894860029220581,0.31116655468940735,132.06431579589844,12.815972328186035,-80.25311279296875,108,-2.0,2.0,139,0.030340023338794708,-0.04649859666824341,0.2774943709373474,0.0005253118579275906,-0.005981979425996542,-0.017848558723926544,0.9998226761817932
136065.331,-0.06773877143859863,0.01318092830479145,0.39074715971946716,-0.16831502318382263,-0.21842409670352936,0.515457808971405,122.15184783935547,7.794992923736572,-100.31773376464844,108,-2.0,2.0,139,0.030340023338794708,-0.04649859666824341,0.2774943709373474,0.0005253118579275906,-0.005981979425996542,-0.017848558723926544,0.9998226761817932
136067.394,-0.06773877143859863,0.01318092830479145,0.39074715971946716,0.04808393120765686,-0.14574787020683289,0.7164281010627747,136.4011688232422,11.198516845703125,5.744380474090576,108,-2.0,2.0,139,0.030340023338794708,-0.04649859666824341,0.2774943709373474,0.0005253118579275906,-0.005981979425996542,-0.017848558723926544,0.9998226761817932
136069.292,-0.06773877143859863,0.01318092830479145,0.39074715971946716,0.2867324948310852,-0.6491206288337708,0.963043749332428,152.33364868164062,19.311349868774414,171.46334838867188,108,-2.0,2.0,139,0.029413744807243347,-0.04554722458124161,0.2798231244087219,0.008535604923963547,-0.0038929986767470837,-0.00830489955842495,0.9999215006828308
136071.275,-0.0677582249045372,0.015321492217481136,0.3531219959259033,0.23553822934627533,-1.432783603668213,1.158369779586792,147.91847229003906,8.072333335876465,200.04551696777344,108,-2.0,2.0,139,0.029413744807243347,-0.04554722458124161,0.2798231244087219,0.008535604923963547,-0.0038929986767470837,-0.00830489955842495,0.9999215006828308
136073.312,-0.0677582249045372,0.015321492217481136,0.3531219959259033,-0.06953164935112,-1.9544992446899414,1.3918325901031494,129.6713104248047,-19.73249626159668,54.77378845214844,108,-2.0,2.0,139,0.028624631464481354,-0.04515158012509346,0.2814769744873047,0.010525735095143318,-0.0034177955240011215,0.008302724920213223,0.9999042749404907
136075.236,-0.06865879148244858,0.015201014466583729,0.37076351046562195,-0.3509569466114044,-1.9181873798370361,1.745405912399292,99.80643463134766,-34.538551330566406,-110.73983764648438,108,-2.0,2.0,139,0.028624631464481354,-0.04515158012509346,0.2814769744873047,0.010525735095143318,-0.0034177955240011215,0.008302724920213223,0.9999042749404907
136077.31,-0.06865879148244858,0.015201014466583729,0.37076351046562195,-0.4300379753112793,-1.59280526638031,2.0756099224090576,73.91792297363281,-26.09459686279297,-151.0594940185547,108,-2.0,2.0,139,0.028624631464481354,-0.04515158012509346,0.2814769744873047,0.010525735095143318,-0.0034177955240011215,0.008302724920213223,0.9999042749404907
136079.206,-0.06865879148244858,0.015201014466583729,0.37076351046562195,-0.4762364327907562,-1.3183454275131226,2.102808952331543,62.35031509399414,-12.637253761291504,-48.700767517089844,119,-3.0,-3.0,136,0.028277216479182243,-0.04424569755792618,0.284645140171051,0.01734752021729946,-0.004626755602657795,0.0141404177993536,0.999738872051239
136081.179,-0.07736890763044357,-0.007149399723857641,0.4018263518810272,-0.3319833278656006,-0.8647788166999817,1.701840877532959,41.591285705566406,-8.478056907653809,22.472505569458008,119,-3.0,-3.0,136,0.028277216479182243,-0.04424569755792618,0.284645140171051,0.01734752021729946,-0.004626755602657795,0.0141404177993536,0.999738872051239
136083.209,-0.07736890763044357,-0.007149399723857641,0.4018263518810272,0.12150410562753677,-0.3325294554233551,0.9141668677330017,10.00291633605957,-10.260720252990723,-17.3199462890625,119,-3.0,-3.0,136,0.028277216479182243,-0.04424569755792618,0.284645140171051,0.01734752021729946,-0.004626755602657795,0.0141404177993536,0.999738872051239
136085.142,-0.07736890763044357,-0.007149399723857641,0.4018263518810272,0.4634855389595032,-0.41924408078193665,0.0931052714586258,0.764218807220459,-4.163609981536865,-22.833436965942383,119,-3.0,-3.0,136,0.027193496003746986,-0.04497987776994705,0.28849679231643677,0.019481608644127846,-0.006270629819482565,0.0018722624517977238,0.9997888207435608
